timestamp,emg1,emg2,emg3,emg4,emg5,emg6,emg7,emg8,timestamp_accelerometer,accelerometer-x,accelerometer-y,accelerometer-z,timestamp_gyro,gyro-x,gyro-y,gyro-z,timestamp_orientation,orientation-x,orientation-y,orientation-z,,orientation-w,roll,pitch,yaw
140734799966975,1,0,0,0,0,0,0,0,11916882484,-0.719727,0.192871,0.6875,11916882484,-1.8125,-1.0625,0.5625,11916882484,-0.0895386,0.394165,0.434631,0.804749,0.28675,0.792684,1.11099
11916883278,-1,0,1,1,-1,3,-1,1,11916882484,-0.719727,0.192871,0.6875,11916882484,-1.8125,-1.0625,0.5625,11916882484,-0.0895386,0.394165,0.434631,0.804749,0.28675,0.792684,1.11099
11916883278,-1,0,0,1,-5,-9,1,-1,11916882484,-0.719727,0.192871,0.6875,11916882484,-1.8125,-1.0625,0.5625,11916882484,-0.0895386,0.394165,0.434631,0.804749,0.28675,0.792684,1.11099
11916884127,-1,-3,-1,-1,4,6,-4,-1,11916882484,-0.719727,0.192871,0.6875,11916882484,-1.8125,-1.0625,0.5625,11916882484,-0.0895386,0.394165,0.434631,0.804749,0.28675,0.792684,1.11099
11916884127,-1,-1,-1,-1,-1,1,1,-2,11916882484,-0.719727,0.192871,0.6875,11916882484,-1.8125,-1.0625,0.5625,11916882484,-0.0895386,0.394165,0.434631,0.804749,0.28675,0.792684,1.11099
11916888193,-1,-1,-2,-3,-5,0,0,1,11916882484,-0.719727,0.192871,0.6875,11916882484,-1.8125,-1.0625,0.5625,11916882484,-0.0895386,0.394165,0.434631,0.804749,0.28675,0.792684,1.11099
11916888193,0,-1,-1,-1,-1,-4,-3,-2,11916889775,-0.726562,0.195801,0.687012,11916889775,-0.5,-1.6875,-0.25,11916889775,-0.0895386,0.39386,0.434631,0.804871,0.286164,0.792122,1.11048
11916892051,2,0,-1,-2,4,-3,-2,-2,11916889775,-0.726562,0.195801,0.687012,11916889775,-0.5,-1.6875,-0.25,11916889775,-0.0895386,0.39386,0.434631,0.804871,0.286164,0.792122,1.11048
11916892051,-2,0,-2,-3,-3,-1,-1,-1,11916889775,-0.726562,0.195801,0.687012,11916889775,-0.5,-1.6875,-0.25,11916889775,-0.0895386,0.39386,0.434631,0.804871,0.286164,0.792122,1.11048
11916894168,-2,-1,0,10,-2,-3,3,-3,11916889775,-0.726562,0.195801,0.687012,11916889775,-0.5,-1.6875,-0.25,11916889775,-0.0895386,0.39386,0.434631,0.804871,0.286164,0.792122,1.11048
11916894168,-1,-2,-1,-4,9,4,0,-2,11916903300,-0.726074,0.195801,0.685059,11916903300,1,-1.4375,-1.0625,11916903300,-0.0894775,0.393677,0.434448,0.805115,0.2857,0.791854,1.10971
11916905455,-1,0,-2,-3,-18,-6,0,0,11916903300,-0.726074,0.195801,0.685059,11916903300,1,-1.4375,-1.0625,11916903300,-0.0894775,0.393677,0.434448,0.805115,0.2857,0.791854,1.10971
11916905455,-1,-2,-2,0,2,5,-1,1,11916903300,-0.726074,0.195801,0.685059,11916903300,1,-1.4375,-1.0625,11916903300,-0.0894775,0.393677,0.434448,0.805115,0.2857,0.791854,1.10971
11916909136,0,-2,-3,-5,5,-2,-3,-2,11916903300,-0.726074,0.195801,0.685059,11916903300,1,-1.4375,-1.0625,11916903300,-0.0894775,0.393677,0.434448,0.805115,0.2857,0.791854,1.10971
11916909136,0,2,0,2,3,6,-1,-1,11916924831,-0.729004,0.195312,0.674805,11916924831,1.1875,-1.6875,-2.0625,11916924831,-0.0894165,0.393616,0.434021,0.805359,0.285195,0.791803,1.10837
11916925570,-1,0,1,2,8,4,1,-2,11916924831,-0.729004,0.195312,0.674805,11916924831,1.1875,-1.6875,-2.0625,11916924831,-0.0894165,0.393616,0.434021,0.805359,0.285195,0.791803,1.10837
11916925570,1,0,2,2,-8,-6,-1,-1,11916924831,-0.729004,0.195312,0.674805,11916924831,1.1875,-1.6875,-2.0625,11916924831,-0.0894165,0.393616,0.434021,0.805359,0.285195,0.791803,1.10837
11916932671,0,-3,-2,-3,-2,-1,-2,-3,11916924831,-0.729004,0.195312,0.674805,11916924831,1.1875,-1.6875,-2.0625,11916924831,-0.0894165,0.393616,0.434021,0.805359,0.285195,0.791803,1.10837
11916932671,-3,-1,-2,-6,3,4,-1,-3,11916947665,-0.731445,0.202637,0.677246,11916947665,0.3125,-2.5,-1.6875,11916947665,-0.0892944,0.393372,0.433777,0.805603,0.284681,0.791304,1.10732
11916954686,-1,-2,1,3,-2,0,0,0,11916947665,-0.731445,0.202637,0.677246,11916947665,0.3125,-2.5,-1.6875,11916947665,-0.0892944,0.393372,0.433777,0.805603,0.284681,0.791304,1.10732
11916954686,0,-2,-2,-2,9,2,-1,1,11916947665,-0.731445,0.202637,0.677246,11916947665,0.3125,-2.5,-1.6875,11916947665,-0.0892944,0.393372,0.433777,0.805603,0.284681,0.791304,1.10732
11916955515,-1,0,-1,-2,-11,-4,-2,-1,11916947665,-0.731445,0.202637,0.677246,11916947665,0.3125,-2.5,-1.6875,11916947665,-0.0892944,0.393372,0.433777,0.805603,0.284681,0.791304,1.10732
11916955515,-1,-1,-4,-5,-4,-4,-3,-1,11917001591,-0.720703,0.19043,0.693848,11917001591,-2.5625,-1.3125,-0.3125,11917001591,-0.0897827,0.392456,0.434082,0.805847,0.282287,0.790159,1.10647
11917002260,-3,-1,0,0,0,4,2,0,11917001591,-0.720703,0.19043,0.693848,11917001591,-2.5625,-1.3125,-0.3125,11917001591,-0.0897827,0.392456,0.434082,0.805847,0.282287,0.790159,1.10647
11917002260,-1,0,1,2,-3,-2,1,0,11917001591,-0.720703,0.19043,0.693848,11917001591,-2.5625,-1.3125,-0.3125,11917001591,-0.0897827,0.392456,0.434082,0.805847,0.282287,0.790159,1.10647
11917003091,-1,-2,-1,-1,4,6,-1,-2,11917001591,-0.720703,0.19043,0.693848,11917001591,-2.5625,-1.3125,-0.3125,11917001591,-0.0897827,0.392456,0.434082,0.805847,0.282287,0.790159,1.10647
11917003091,-1,0,1,1,-2,-3,1,1,11917001591,-0.720703,0.19043,0.693848,11917001591,-2.5625,-1.3125,-0.3125,11917001591,-0.0897827,0.392456,0.434082,0.805847,0.282287,0.790159,1.10647
11917003827,-1,-1,-2,-2,-2,-3,-2,-3,11917001591,-0.720703,0.19043,0.693848,11917001591,-2.5625,-1.3125,-0.3125,11917001591,-0.0897827,0.392456,0.434082,0.805847,0.282287,0.790159,1.10647
11917003827,0,-2,-1,-2,-1,-1,-2,-2,11917001591,-0.720703,0.19043,0.693848,11917001591,-2.5625,-1.3125,-0.3125,11917001591,-0.0897827,0.392456,0.434082,0.805847,0.282287,0.790159,1.10647
11917007007,-1,-1,0,2,-2,-3,-1,0,11917001591,-0.720703,0.19043,0.693848,11917001591,-2.5625,-1.3125,-0.3125,11917001591,-0.0897827,0.392456,0.434082,0.805847,0.282287,0.790159,1.10647
11917007007,-1,-2,0,1,0,2,1,0,11917007802,-0.717773,0.180664,0.694824,11917007802,-0.9375,-0.875,-0.25,11917007802,-0.0898438,0.392395,0.434082,0.805908,0.282037,0.790163,1.10636
11917013806,0,0,-1,-4,-12,-9,-3,0,11917007802,-0.717773,0.180664,0.694824,11917007802,-0.9375,-0.875,-0.25,11917007802,-0.0898438,0.392395,0.434082,0.805908,0.282037,0.790163,1.10636
11917013806,-2,-2,-3,-2,10,6,0,1,11917007802,-0.717773,0.180664,0.694824,11917007802,-0.9375,-0.875,-0.25,11917007802,-0.0898438,0.392395,0.434082,0.805908,0.282037,0.790163,1.10636
11917021976,-2,0,-2,-1,3,7,-1,-2,11917007802,-0.717773,0.180664,0.694824,11917007802,-0.9375,-0.875,-0.25,11917007802,-0.0898438,0.392395,0.434082,0.805908,0.282037,0.790163,1.10636
11917021976,-1,-2,-4,-3,4,0,1,-2,11917022768,-0.71875,0.185059,0.692383,11917022768,1.5625,-0.5,-0.625,11917022768,-0.0897217,0.392334,0.433838,0.80603,0.281886,0.789946,1.10558
11917028776,-1,0,-1,-2,-5,-5,0,1,11917022768,-0.71875,0.185059,0.692383,11917022768,1.5625,-0.5,-0.625,11917022768,-0.0897217,0.392334,0.433838,0.80603,0.281886,0.789946,1.10558
11917028776,0,0,0,-1,-5,-4,-1,-2,11917022768,-0.71875,0.185059,0.692383,11917022768,1.5625,-0.5,-0.625,11917022768,-0.0897217,0.392334,0.433838,0.80603,0.281886,0.789946,1.10558
11917044708,-2,-1,1,-1,-1,-2,1,-1,11917022768,-0.71875,0.185059,0.692383,11917022768,1.5625,-0.5,-0.625,11917022768,-0.0897217,0.392334,0.433838,0.80603,0.281886,0.789946,1.10558
11917044708,0,-2,0,1,9,-1,-2,-1,11917045350,-0.721191,0.199707,0.687012,11917045350,2.1875,-0.625,-0.5,11917045350,-0.0894165,0.392395,0.433655,0.806152,0.282398,0.789799,1.10533
11917051353,0,-4,-1,-2,-10,-4,-3,-1,11917045350,-0.721191,0.199707,0.687012,11917045350,2.1875,-0.625,-0.5,11917045350,-0.0894165,0.392395,0.433655,0.806152,0.282398,0.789799,1.10533
11917051353,-1,0,-4,-1,0,8,2,-1,11917045350,-0.721191,0.199707,0.687012,11917045350,2.1875,-0.625,-0.5,11917045350,-0.0894165,0.392395,0.433655,0.806152,0.282398,0.789799,1.10533
11917066495,-1,-2,-3,-3,2,-1,1,-1,11917045350,-0.721191,0.199707,0.687012,11917045350,2.1875,-0.625,-0.5,11917045350,-0.0894165,0.392395,0.433655,0.806152,0.282398,0.789799,1.10533
11917066495,-1,1,1,4,-2,-4,-2,-2,11917074495,-0.715332,0.208496,0.68457,11917074495,0.3125,-0.0625,-0.25,11917074495,-0.0893555,0.392395,0.433655,0.806152,0.282524,0.789724,1.10536
11917075237,-2,-1,1,-1,9,3,-1,-3,11917074495,-0.715332,0.208496,0.68457,11917074495,0.3125,-0.0625,-0.25,11917074495,-0.0893555,0.392395,0.433655,0.806152,0.282524,0.789724,1.10536
11917075237,0,-2,-1,0,3,0,-2,0,11917074495,-0.715332,0.208496,0.68457,11917074495,0.3125,-0.0625,-0.25,11917074495,-0.0893555,0.392395,0.433655,0.806152,0.282524,0.789724,1.10536
11917090133,0,-3,-3,-3,-7,-3,-1,2,11917074495,-0.715332,0.208496,0.68457,11917074495,0.3125,-0.0625,-0.25,11917074495,-0.0893555,0.392395,0.433655,0.806152,0.282524,0.789724,1.10536
11917090133,-1,-2,-1,-1,-1,-5,-4,0,11917090913,-0.718262,0.197266,0.692383,11917090913,-1.4375,-0.1875,0,11917090913,-0.0895386,0.392212,0.433777,0.806152,0.281948,0.789562,1.10532
11917091700,-1,-2,-1,1,-5,-1,-1,0,11917090913,-0.718262,0.197266,0.692383,11917090913,-1.4375,-0.1875,0,11917090913,-0.0895386,0.392212,0.433777,0.806152,0.281948,0.789562,1.10532
11917091700,-1,-2,-1,-2,1,0,-1,0,11917090913,-0.718262,0.197266,0.692383,11917090913,-1.4375,-0.1875,0,11917090913,-0.0895386,0.392212,0.433777,0.806152,0.281948,0.789562,1.10532
11917112659,-1,-2,-2,-2,-4,-1,-2,-1,11917090913,-0.718262,0.197266,0.692383,11917090913,-1.4375,-0.1875,0,11917090913,-0.0895386,0.392212,0.433777,0.806152,0.281948,0.789562,1.10532
11917112659,-1,0,-1,-2,-4,-1,0,-2,11917113451,-0.721191,0.1875,0.694824,11917113451,-0.5,-0.125,0.125,11917113451,-0.0895996,0.392151,0.433777,0.806213,0.281697,0.789565,1.1052
11917114238,1,-1,0,0,-1,-1,0,-1,11917113451,-0.721191,0.1875,0.694824,11917113451,-0.5,-0.125,0.125,11917113451,-0.0895996,0.392151,0.433777,0.806213,0.281697,0.789565,1.1052
11917114238,-1,0,-2,2,-3,-2,-2,-2,11917113451,-0.721191,0.1875,0.694824,11917113451,-0.5,-0.125,0.125,11917113451,-0.0895996,0.392151,0.433777,0.806213,0.281697,0.789565,1.1052
11917126277,-2,0,1,2,1,-6,-3,1,11917113451,-0.721191,0.1875,0.694824,11917113451,-0.5,-0.125,0.125,11917113451,-0.0895996,0.392151,0.433777,0.806213,0.281697,0.789565,1.1052
11917126277,0,-3,-3,-4,-6,-2,-3,-1,11917134533,-0.728027,0.189941,0.692383,11917134533,0.1875,-0.3125,0.125,11917134533,-0.0895996,0.392151,0.433777,0.806213,0.281697,0.789565,1.1052
11917135267,0,2,0,0,3,4,-2,-1,11917134533,-0.728027,0.189941,0.692383,11917134533,0.1875,-0.3125,0.125,11917134533,-0.0895996,0.392151,0.433777,0.806213,0.281697,0.789565,1.1052
11917135267,-1,-1,-1,-1,-4,-9,-1,0,11917134533,-0.728027,0.189941,0.692383,11917134533,0.1875,-0.3125,0.125,11917134533,-0.0895996,0.392151,0.433777,0.806213,0.281697,0.789565,1.1052
11917150213,-3,0,1,2,2,2,1,-1,11917134533,-0.728027,0.189941,0.692383,11917134533,0.1875,-0.3125,0.125,11917134533,-0.0895996,0.392151,0.433777,0.806213,0.281697,0.789565,1.1052
11917150213,-3,-1,-3,-2,-1,2,-1,-1,11917150982,-0.712891,0.197754,0.694336,11917150982,1.1875,-0.5,0.375,11917150982,-0.0893555,0.39209,0.433777,0.806274,0.282075,0.789192,1.10525
11917151751,-2,-2,-4,-3,1,-3,0,-2,11917150982,-0.712891,0.197754,0.694336,11917150982,1.1875,-0.5,0.375,11917150982,-0.0893555,0.39209,0.433777,0.806274,0.282075,0.789192,1.10525
11917151751,-1,-1,1,1,6,-3,-2,-1,11917150982,-0.712891,0.197754,0.694336,11917150982,1.1875,-0.5,0.375,11917150982,-0.0893555,0.39209,0.433777,0.806274,0.282075,0.789192,1.10525
11917172641,-1,-1,-1,0,-3,9,0,0,11917150982,-0.712891,0.197754,0.694336,11917150982,1.1875,-0.5,0.375,11917150982,-0.0893555,0.39209,0.433777,0.806274,0.282075,0.789192,1.10525
11917172641,0,-2,-1,-5,-3,5,0,-2,11917173473,-0.714355,0.201172,0.687012,11917173473,0.8125,-0.5,-0.375,11917173473,-0.0892944,0.39209,0.433777,0.806274,0.2822,0.789117,1.10528
11917174254,-2,0,-1,2,3,-3,-3,-1,11917173473,-0.714355,0.201172,0.687012,11917173473,0.8125,-0.5,-0.375,11917173473,-0.0892944,0.39209,0.433777,0.806274,0.2822,0.789117,1.10528
11917174254,-1,0,-2,-3,0,-6,0,-1,11917173473,-0.714355,0.201172,0.687012,11917173473,0.8125,-0.5,-0.375,11917173473,-0.0892944,0.39209,0.433777,0.806274,0.2822,0.789117,1.10528
11917186323,1,-1,0,-2,-20,-10,-3,-2,11917173473,-0.714355,0.201172,0.687012,11917173473,0.8125,-0.5,-0.375,11917173473,-0.0892944,0.39209,0.433777,0.806274,0.2822,0.789117,1.10528
11917186323,0,1,-1,-1,8,0,0,-2,11917194505,-0.727539,0.204102,0.689453,11917194505,0.375,-0.5,-0.5,11917194505,-0.0892944,0.39209,0.433777,0.806274,0.2822,0.789117,1.10528
11917195267,0,-1,-2,-2,0,3,0,0,11917194505,-0.727539,0.204102,0.689453,11917194505,0.375,-0.5,-0.5,11917194505,-0.0892944,0.39209,0.433777,0.806274,0.2822,0.789117,1.10528
11917195267,0,0,-1,-2,0,2,-1,-1,11917194505,-0.727539,0.204102,0.689453,11917194505,0.375,-0.5,-0.5,11917194505,-0.0892944,0.39209,0.433777,0.806274,0.2822,0.789117,1.10528
11917210135,1,-1,0,0,11,-4,-1,-2,11917194505,-0.727539,0.204102,0.689453,11917194505,0.375,-0.5,-0.5,11917194505,-0.0892944,0.39209,0.433777,0.806274,0.2822,0.789117,1.10528
11917210135,-1,-1,-1,-1,-24,-3,-1,-1,11917210942,-0.725586,0.20166,0.686523,11917210942,0.125,0.1875,-0.5625,11917210942,-0.0892944,0.39209,0.433777,0.806274,0.2822,0.789117,1.10528
11917211730,-1,-1,-2,-1,1,-2,-3,-2,11917210942,-0.725586,0.20166,0.686523,11917210942,0.125,0.1875,-0.5625,11917210942,-0.0892944,0.39209,0.433777,0.806274,0.2822,0.789117,1.10528
11917211730,-1,-1,-3,-6,0,-1,1,-1,11917210942,-0.725586,0.20166,0.686523,11917210942,0.125,0.1875,-0.5625,11917210942,-0.0892944,0.39209,0.433777,0.806274,0.2822,0.789117,1.10528
11917232639,0,-2,0,4,2,1,0,-1,11917210942,-0.725586,0.20166,0.686523,11917210942,0.125,0.1875,-0.5625,11917210942,-0.0892944,0.39209,0.433777,0.806274,0.2822,0.789117,1.10528
11917232639,-1,-1,-2,2,2,-2,-1,-1,11917239832,-0.717773,0.189453,0.683594,11917239832,0,0.3125,-0.625,11917239832,-0.0893555,0.39209,0.433777,0.806274,0.282075,0.789192,1.10525
11917240251,0,-1,-3,-2,3,0,2,-2,11917239832,-0.717773,0.189453,0.683594,11917239832,0,0.3125,-0.625,11917239832,-0.0893555,0.39209,0.433777,0.806274,0.282075,0.789192,1.10525
11917240251,-1,0,-1,-1,-7,0,-3,-1,11917239832,-0.717773,0.189453,0.683594,11917239832,0,0.3125,-0.625,11917239832,-0.0893555,0.39209,0.433777,0.806274,0.282075,0.789192,1.10525
11917246295,-1,2,-3,-3,2,-1,-1,0,11917239832,-0.717773,0.189453,0.683594,11917239832,0,0.3125,-0.625,11917239832,-0.0893555,0.39209,0.433777,0.806274,0.282075,0.789192,1.10525
11917246295,-1,0,-2,-1,2,-4,-1,-2,11917254502,-0.720703,0.189453,0.694824,11917254502,-0.125,0.1875,-0.625,11917254502,-0.0893555,0.392029,0.433777,0.806274,0.281965,0.789053,1.10513
11917255266,1,-1,0,2,1,1,0,-1,11917254502,-0.720703,0.189453,0.694824,11917254502,-0.125,0.1875,-0.625,11917254502,-0.0893555,0.392029,0.433777,0.806274,0.281965,0.789053,1.10513
11917255266,0,-1,-1,-5,-7,-6,-3,0,11917254502,-0.720703,0.189453,0.694824,11917254502,-0.125,0.1875,-0.625,11917254502,-0.0893555,0.392029,0.433777,0.806274,0.281965,0.789053,1.10513
11917269374,0,-2,-4,-4,-3,-1,-2,-1,11917254502,-0.720703,0.189453,0.694824,11917254502,-0.125,0.1875,-0.625,11917254502,-0.0893555,0.392029,0.433777,0.806274,0.281965,0.789053,1.10513
11917269374,-1,0,-1,-2,4,1,-3,-1,11917277038,-0.728516,0.198242,0.6875,11917277038,-0.0625,-0.1875,-0.625,11917277038,-0.0893555,0.392029,0.433777,0.806274,0.281965,0.789053,1.10513
11917277730,-3,-3,0,-2,-5,-2,0,0,11917277038,-0.728516,0.198242,0.6875,11917277038,-0.0625,-0.1875,-0.625,11917277038,-0.0893555,0.392029,0.433777,0.806274,0.281965,0.789053,1.10513
11917277730,-1,1,1,3,5,0,-4,-2,11917277038,-0.728516,0.198242,0.6875,11917277038,-0.0625,-0.1875,-0.625,11917277038,-0.0893555,0.392029,0.433777,0.806274,0.281965,0.789053,1.10513
11917292634,-1,-1,0,2,3,10,0,-1,11917277038,-0.728516,0.198242,0.6875,11917277038,-0.0625,-0.1875,-0.625,11917277038,-0.0893555,0.392029,0.433777,0.806274,0.281965,0.789053,1.10513
11917292634,0,0,-3,-2,-7,-15,0,-1,11917293403,-0.712891,0.193848,0.691406,11917293403,0.0625,-0.1875,-0.3125,11917293403,-0.0893555,0.392029,0.433777,0.806274,0.281965,0.789053,1.10513
11917294251,-1,0,0,-3,1,-2,-3,-1,11917293403,-0.712891,0.193848,0.691406,11917293403,0.0625,-0.1875,-0.3125,11917293403,-0.0893555,0.392029,0.433777,0.806274,0.281965,0.789053,1.10513
11917294251,0,-2,-1,0,-2,0,0,-1,11917293403,-0.712891,0.193848,0.691406,11917293403,0.0625,-0.1875,-0.3125,11917293403,-0.0893555,0.392029,0.433777,0.806274,0.281965,0.789053,1.10513
11917306363,-3,-1,-1,-2,9,-5,0,0,11917293403,-0.712891,0.193848,0.691406,11917293403,0.0625,-0.1875,-0.3125,11917293403,-0.0893555,0.392029,0.433777,0.806274,0.281965,0.789053,1.10513
11917306363,-1,-2,-3,-2,10,12,-2,-1,11917314577,-0.717773,0.197266,0.687012,11917314577,0.25,-0.125,-0.75,11917314577,-0.0893555,0.392029,0.433777,0.806274,0.281965,0.789053,1.10513
11917315291,-1,1,0,-4,-31,-8,-1,1,11917314577,-0.717773,0.197266,0.687012,11917314577,0.25,-0.125,-0.75,11917314577,-0.0893555,0.392029,0.433777,0.806274,0.281965,0.789053,1.10513
11917315291,1,-1,1,0,5,3,0,1,11917314577,-0.717773,0.197266,0.687012,11917314577,0.25,-0.125,-0.75,11917314577,-0.0893555,0.392029,0.433777,0.806274,0.281965,0.789053,1.10513
11917330221,1,1,-1,4,-8,-4,0,1,11917314577,-0.717773,0.197266,0.687012,11917314577,0.25,-0.125,-0.75,11917314577,-0.0893555,0.392029,0.433777,0.806274,0.281965,0.789053,1.10513
11917330221,0,-2,2,-1,14,2,0,0,11917330930,-0.724609,0.193848,0.6875,11917330930,0.6875,0.625,-1,11917330930,-0.0893555,0.392029,0.433777,0.806274,0.281965,0.789053,1.10513
11917331782,-2,-3,-2,-1,4,-1,2,1,11917330930,-0.724609,0.193848,0.6875,11917330930,0.6875,0.625,-1,11917330930,-0.0893555,0.392029,0.433777,0.806274,0.281965,0.789053,1.10513
11917331782,-1,-2,-2,-3,-1,5,-1,-1,11917330930,-0.724609,0.193848,0.6875,11917330930,0.6875,0.625,-1,11917330930,-0.0893555,0.392029,0.433777,0.806274,0.281965,0.789053,1.10513
11917352685,2,-1,1,-2,1,-5,-3,-1,11917330930,-0.724609,0.193848,0.6875,11917330930,0.6875,0.625,-1,11917330930,-0.0893555,0.392029,0.433777,0.806274,0.281965,0.789053,1.10513
11917352685,-1,-1,-1,4,-4,-1,-3,0,11917353437,-0.723633,0.195801,0.686523,11917353437,0.4375,0.625,-0.5,11917353437,-0.0894165,0.392029,0.433716,0.806274,0.281774,0.789112,1.1049
11917354210,-3,-2,-2,2,2,0,-1,-3,11917353437,-0.723633,0.195801,0.686523,11917353437,0.4375,0.625,-0.5,11917353437,-0.0894165,0.392029,0.433716,0.806274,0.281774,0.789112,1.1049
11917354210,0,-2,-2,-2,-9,-5,-1,-1,11917353437,-0.723633,0.195801,0.686523,11917353437,0.4375,0.625,-0.5,11917353437,-0.0894165,0.392029,0.433716,0.806274,0.281774,0.789112,1.1049
11917366324,-1,-3,-4,-4,-3,-5,-2,-2,11917353437,-0.723633,0.195801,0.686523,11917353437,0.4375,0.625,-0.5,11917353437,-0.0894165,0.392029,0.433716,0.806274,0.281774,0.789112,1.1049
11917366324,-1,0,-1,-2,-7,-2,1,-1,11917374452,-0.720703,0.200195,0.691406,11917374452,-1.0625,0.25,-0.1875,11917374452,-0.0895386,0.391968,0.433838,0.806274,0.281543,0.789154,1.10512
11917375238,0,-1,-1,0,6,9,1,-2,11917374452,-0.720703,0.200195,0.691406,11917374452,-1.0625,0.25,-0.1875,11917374452,-0.0895386,0.391968,0.433838,0.806274,0.281543,0.789154,1.10512
11917375238,-1,-1,-3,2,7,-12,0,-2,11917374452,-0.720703,0.200195,0.691406,11917374452,-1.0625,0.25,-0.1875,11917374452,-0.0895386,0.391968,0.433838,0.806274,0.281543,0.789154,1.10512
11917390176,-3,1,-1,-2,-6,-4,-2,0,11917374452,-0.720703,0.200195,0.691406,11917374452,-1.0625,0.25,-0.1875,11917374452,-0.0895386,0.391968,0.433838,0.806274,0.281543,0.789154,1.10512
11917390176,0,-1,-1,-3,-10,-1,-2,1,11917390953,-0.72168,0.187988,0.690918,11917390953,-1.125,0.125,-0.6875,11917390953,-0.0898438,0.391785,0.433777,0.806335,0.280505,0.789163,1.10446
11917391784,0,-1,-3,-2,10,3,-2,-3,11917390953,-0.72168,0.187988,0.690918,11917390953,-1.125,0.125,-0.6875,11917390953,-0.0898438,0.391785,0.433777,0.806335,0.280505,0.789163,1.10446
11917391784,0,-3,0,-1,-5,-1,-2,0,11917390953,-0.72168,0.187988,0.690918,11917390953,-1.125,0.125,-0.6875,11917390953,-0.0898438,0.391785,0.433777,0.806335,0.280505,0.789163,1.10446
11917412698,0,-2,0,-1,-3,-1,-1,-2,11917390953,-0.72168,0.187988,0.690918,11917390953,-1.125,0.125,-0.6875,11917390953,-0.0898438,0.391785,0.433777,0.806335,0.280505,0.789163,1.10446
11917412698,-2,-2,-2,-1,8,0,0,1,11917413490,-0.723633,0.186523,0.685547,11917413490,0.6875,0.0625,-0.1875,11917413490,-0.0899048,0.391785,0.433716,0.806335,0.280314,0.789223,1.10424
11917414261,-1,0,0,0,3,9,-2,0,11917413490,-0.723633,0.186523,0.685547,11917413490,0.6875,0.0625,-0.1875,11917413490,-0.0899048,0.391785,0.433716,0.806335,0.280314,0.789223,1.10424
11917414261,-2,-2,-2,-1,-3,-8,0,-3,11917413490,-0.723633,0.186523,0.685547,11917413490,0.6875,0.0625,-0.1875,11917413490,-0.0899048,0.391785,0.433716,0.806335,0.280314,0.789223,1.10424
11917426358,-1,-1,-3,-3,-7,-1,0,-2,11917413490,-0.723633,0.186523,0.685547,11917413490,0.6875,0.0625,-0.1875,11917413490,-0.0899048,0.391785,0.433716,0.806335,0.280314,0.789223,1.10424
11917426358,-1,-3,0,-1,-3,-7,-2,-1,11917434699,-0.721191,0.198242,0.685059,11917434699,1.4375,-0.25,-0.5,11917434699,-0.0897217,0.391907,0.433594,0.806396,0.280765,0.789314,1.1042
11917435285,0,-3,-2,-1,-1,-4,0,0,11917434699,-0.721191,0.198242,0.685059,11917434699,1.4375,-0.25,-0.5,11917434699,-0.0897217,0.391907,0.433594,0.806396,0.280765,0.789314,1.1042
11917435285,-1,1,-2,-2,-9,1,-1,1,11917434699,-0.721191,0.198242,0.685059,11917434699,1.4375,-0.25,-0.5,11917434699,-0.0897217,0.391907,0.433594,0.806396,0.280765,0.789314,1.1042
11917450174,-2,-1,-2,-1,14,5,-1,0,11917434699,-0.721191,0.198242,0.685059,11917434699,1.4375,-0.25,-0.5,11917434699,-0.0897217,0.391907,0.433594,0.806396,0.280765,0.789314,1.1042
11917450174,-1,-1,-1,-4,-6,-8,-1,-2,11917450920,-0.723633,0.196289,0.684082,11917450920,1,-0.6875,-0.625,11917450920,-0.0895996,0.391907,0.433411,0.806519,0.280791,0.789253,1.10373
11917451732,0,-1,0,1,6,4,-2,-2,11917450920,-0.723633,0.196289,0.684082,11917450920,1,-0.6875,-0.625,11917450920,-0.0895996,0.391907,0.433411,0.806519,0.280791,0.789253,1.10373
11917451732,-1,1,-1,0,-2,-1,-2,-2,11917450920,-0.723633,0.196289,0.684082,11917450920,1,-0.6875,-0.625,11917450920,-0.0895996,0.391907,0.433411,0.806519,0.280791,0.789253,1.10373
11917472782,0,0,-1,-4,-16,-3,-2,-1,11917450920,-0.723633,0.196289,0.684082,11917450920,1,-0.6875,-0.625,11917450920,-0.0895996,0.391907,0.433411,0.806519,0.280791,0.789253,1.10373
11917472782,-3,0,1,2,13,4,0,1,11917473579,-0.720703,0.197754,0.690918,11917473579,-1.375,-0.6875,-0.5,11917473579,-0.0897217,0.391663,0.433472,0.80658,0.280151,0.788927,1.10345
11917474227,-1,0,-3,-1,-4,-8,-1,1,11917473579,-0.720703,0.197754,0.690918,11917473579,-1.375,-0.6875,-0.5,11917473579,-0.0897217,0.391663,0.433472,0.80658,0.280151,0.788927,1.10345
11917474227,-2,0,0,0,9,9,-1,-1,11917473579,-0.720703,0.197754,0.690918,11917473579,-1.375,-0.6875,-0.5,11917473579,-0.0897217,0.391663,0.433472,0.80658,0.280151,0.788927,1.10345
11917502664,0,-2,-1,0,3,1,0,0,11917473579,-0.720703,0.197754,0.690918,11917473579,-1.375,-0.6875,-0.5,11917473579,-0.0897217,0.391663,0.433472,0.80658,0.280151,0.788927,1.10345
11917502664,0,-1,-2,-4,-13,-10,-2,0,11917503429,-0.713379,0.194824,0.690918,11917503429,-1.125,-0.9375,0.1875,11917503429,-0.0897827,0.391357,0.433594,0.806641,0.279592,0.788403,1.10327
11917504257,-1,-2,0,1,4,6,-1,-1,11917503429,-0.713379,0.194824,0.690918,11917503429,-1.125,-0.9375,0.1875,11917503429,-0.0897827,0.391357,0.433594,0.806641,0.279592,0.788403,1.10327
11917504257,0,-3,-1,-1,-3,-4,-3,-1,11917503429,-0.713379,0.194824,0.690918,11917503429,-1.125,-0.9375,0.1875,11917503429,-0.0897827,0.391357,0.433594,0.806641,0.279592,0.788403,1.10327
11917510145,-2,-1,0,-1,0,3,-1,-1,11917503429,-0.713379,0.194824,0.690918,11917503429,-1.125,-0.9375,0.1875,11917503429,-0.0897827,0.391357,0.433594,0.806641,0.279592,0.788403,1.10327
11917510145,0,0,-1,-2,-5,-1,-1,-1,11917511001,-0.719727,0.193848,0.697754,11917511001,-1.0625,-0.9375,0.0625,11917511001,-0.0898438,0.391052,0.433716,0.806702,0.279035,0.787878,1.1031
11917511768,-1,0,-1,-3,-9,-7,-2,-2,11917511001,-0.719727,0.193848,0.697754,11917511001,-1.0625,-0.9375,0.0625,11917511001,-0.0898438,0.391052,0.433716,0.806702,0.279035,0.787878,1.1031
11917511768,-1,0,0,0,10,1,1,-1,11917524034,-0.719727,0.187012,0.69873,11917524034,0.4375,-0.5625,0.4375,11917524034,-0.0899048,0.391052,0.433716,0.806702,0.278909,0.787953,1.10307
11917531979,0,-3,0,0,-2,-1,-1,-2,11917524034,-0.719727,0.187012,0.69873,11917524034,0.4375,-0.5625,0.4375,11917524034,-0.0899048,0.391052,0.433716,0.806702,0.278909,0.787953,1.10307
11917531979,-2,0,0,0,-3,5,0,-2,11917524034,-0.719727,0.187012,0.69873,11917524034,0.4375,-0.5625,0.4375,11917524034,-0.0899048,0.391052,0.433716,0.806702,0.278909,0.787953,1.10307
11917532768,-2,0,-3,-2,0,-7,-1,-1,11917524034,-0.719727,0.187012,0.69873,11917524034,0.4375,-0.5625,0.4375,11917524034,-0.0899048,0.391052,0.433716,0.806702,0.278909,0.787953,1.10307
11917532768,-1,-1,-1,-2,-9,1,-2,0,11917546340,-0.71582,0.193359,0.687012,11917546340,1.9375,0.0625,0.75,11917546340,-0.0895996,0.391174,0.433655,0.806702,0.279691,0.787842,1.10325
11917554447,-2,1,-2,0,6,0,0,0,11917546340,-0.71582,0.193359,0.687012,11917546340,1.9375,0.0625,0.75,11917546340,-0.0895996,0.391174,0.433655,0.806702,0.279691,0.787842,1.10325
11917554447,-2,0,-1,0,-3,0,-1,-1,11917546340,-0.71582,0.193359,0.687012,11917546340,1.9375,0.0625,0.75,11917546340,-0.0895996,0.391174,0.433655,0.806702,0.279691,0.787842,1.10325
11917555226,0,-2,-1,-1,0,5,-2,2,11917546340,-0.71582,0.193359,0.687012,11917546340,1.9375,0.0625,0.75,11917546340,-0.0895996,0.391174,0.433655,0.806702,0.279691,0.787842,1.10325
11917555226,-2,-2,-2,-4,9,-10,-1,0,11917561459,-0.71875,0.195312,0.689453,11917561459,1.125,0.375,1.125,11917561459,-0.0894165,0.391296,0.433777,0.806641,0.280432,0.787859,1.10393
11917569563,-1,0,1,1,-13,1,0,-2,11917561459,-0.71875,0.195312,0.689453,11917561459,1.125,0.375,1.125,11917561459,-0.0894165,0.391296,0.433777,0.806641,0.280432,0.787859,1.10393
11917569563,-1,1,-3,-1,2,1,-4,-2,11917561459,-0.71875,0.195312,0.689453,11917561459,1.125,0.375,1.125,11917561459,-0.0894165,0.391296,0.433777,0.806641,0.280432,0.787859,1.10393
11917570273,-2,0,1,-1,0,0,-1,-1,11917561459,-0.71875,0.195312,0.689453,11917561459,1.125,0.375,1.125,11917561459,-0.0894165,0.391296,0.433777,0.806641,0.280432,0.787859,1.10393
11917570273,-1,-3,-1,-2,-2,2,1,-2,11917583881,-0.722656,0.193848,0.694336,11917583881,-0.4375,0.875,0.75,11917583881,-0.0894165,0.391296,0.433777,0.806641,0.280432,0.787859,1.10393
11917591961,0,1,0,3,7,2,1,-1,11917583881,-0.722656,0.193848,0.694336,11917583881,-0.4375,0.875,0.75,11917583881,-0.0894165,0.391296,0.433777,0.806641,0.280432,0.787859,1.10393
11917591961,1,-1,-2,-1,-6,-5,-1,-1,11917583881,-0.722656,0.193848,0.694336,11917583881,-0.4375,0.875,0.75,11917583881,-0.0894165,0.391296,0.433777,0.806641,0.280432,0.787859,1.10393
11917592728,-1,-3,-1,-1,1,-2,-1,-3,11917583881,-0.722656,0.193848,0.694336,11917583881,-0.4375,0.875,0.75,11917583881,-0.0894165,0.391296,0.433777,0.806641,0.280432,0.787859,1.10393
11917592728,0,0,-1,-3,-2,2,1,-2,11917606338,-0.726562,0.183105,0.685059,11917606338,0.5625,1.0625,1.25,11917606338,-0.0895386,0.391479,0.433777,0.806519,0.28054,0.788293,1.10415
11917614487,0,-1,0,-3,-3,-4,-3,-2,11917606338,-0.726562,0.183105,0.685059,11917606338,0.5625,1.0625,1.25,11917606338,-0.0895386,0.391479,0.433777,0.806519,0.28054,0.788293,1.10415
11917614487,-1,-1,-1,1,11,4,-1,-2,11917606338,-0.726562,0.183105,0.685059,11917606338,0.5625,1.0625,1.25,11917606338,-0.0895386,0.391479,0.433777,0.806519,0.28054,0.788293,1.10415
11917615246,-1,0,1,2,-17,-8,-2,1,11917606338,-0.726562,0.183105,0.685059,11917606338,0.5625,1.0625,1.25,11917606338,-0.0895386,0.391479,0.433777,0.806519,0.28054,0.788293,1.10415
11917615246,-3,-1,0,0,-1,2,0,-2,11917621370,-0.723145,0.179199,0.680664,11917621370,1.375,0.8125,1.4375,11917621370,-0.0894775,0.391724,0.433777,0.806396,0.281134,0.78864,1.10457
11917628852,-1,-1,-2,-2,2,1,-1,-2,11917621370,-0.723145,0.179199,0.680664,11917621370,1.375,0.8125,1.4375,11917621370,-0.0894775,0.391724,0.433777,0.806396,0.281134,0.78864,1.10457
11917628852,0,0,-1,-2,-4,-6,-4,-1,11917621370,-0.723145,0.179199,0.680664,11917621370,1.375,0.8125,1.4375,11917621370,-0.0894775,0.391724,0.433777,0.806396,0.281134,0.78864,1.10457
11917636326,-1,0,-1,-2,8,2,1,0,11917621370,-0.723145,0.179199,0.680664,11917621370,1.375,0.8125,1.4375,11917621370,-0.0894775,0.391724,0.433777,0.806396,0.281134,0.78864,1.10457
11917636326,-3,1,1,3,-8,-1,-1,-1,11917643900,-0.728027,0.195801,0.683594,11917643900,1.8125,0.5625,2,11917643900,-0.0892334,0.392029,0.433899,0.806213,0.282361,0.788866,1.10555
11917652000,0,-3,-2,-4,-6,-5,-1,0,11917643900,-0.728027,0.195801,0.683594,11917643900,1.8125,0.5625,2,11917643900,-0.0892334,0.392029,0.433899,0.806213,0.282361,0.788866,1.10555
11917652000,-1,-2,-1,-2,4,1,-1,0,11917643900,-0.728027,0.195801,0.683594,11917643900,1.8125,0.5625,2,11917643900,-0.0892334,0.392029,0.433899,0.806213,0.282361,0.788866,1.10555
11917652736,-1,-1,-1,-1,-5,-6,1,-1,11917643900,-0.728027,0.195801,0.683594,11917643900,1.8125,0.5625,2,11917643900,-0.0892334,0.392029,0.433899,0.806213,0.282361,0.788866,1.10555
11917652736,-2,-2,-1,-1,5,9,-2,-2,11917666445,-0.727539,0.203613,0.685547,11917666445,1.625,0.375,2,11917666445,-0.0888672,0.392334,0.434082,0.80603,0.283905,0.788955,1.1068
11917674474,-2,-2,-3,-3,0,-9,-1,-1,11917666445,-0.727539,0.203613,0.685547,11917666445,1.625,0.375,2,11917666445,-0.0888672,0.392334,0.434082,0.80603,0.283905,0.788955,1.1068
11917674474,-1,0,0,4,8,3,0,0,11917666445,-0.727539,0.203613,0.685547,11917666445,1.625,0.375,2,11917666445,-0.0888672,0.392334,0.434082,0.80603,0.283905,0.788955,1.1068
11917675310,0,-1,-3,-3,-25,-5,-1,0,11917666445,-0.727539,0.203613,0.685547,11917666445,1.625,0.375,2,11917666445,-0.0888672,0.392334,0.434082,0.80603,0.283905,0.788955,1.1068
11917675310,-1,0,-2,0,-2,-3,-2,-2,11917681606,-0.722656,0.198242,0.683594,11917681606,1.6875,-0.0625,1.9375,11917681606,-0.088562,0.392517,0.434204,0.805908,0.285023,0.788893,1.10762
11917688828,0,-3,0,0,1,-1,1,0,11917681606,-0.722656,0.198242,0.683594,11917681606,1.6875,-0.0625,1.9375,11917681606,-0.088562,0.392517,0.434204,0.805908,0.285023,0.788893,1.10762
11917688828,-1,-3,-1,-1,-5,0,0,-2,11917681606,-0.722656,0.198242,0.683594,11917681606,1.6875,-0.0625,1.9375,11917681606,-0.088562,0.392517,0.434204,0.805908,0.285023,0.788893,1.10762
11917696287,-1,2,2,1,12,1,-2,-1,11917681606,-0.722656,0.198242,0.683594,11917681606,1.6875,-0.0625,1.9375,11917681606,-0.088562,0.392517,0.434204,0.805908,0.285023,0.788893,1.10762
11917696287,0,-1,-2,-3,-2,0,-1,-1,11917703837,-0.712891,0.196777,0.685547,11917703837,1.625,-0.25,1.8125,11917703837,-0.0881958,0.392578,0.434326,0.805847,0.28603,0.788544,1.10828
11917711967,-3,0,-3,-1,-5,-5,-2,0,11917703837,-0.712891,0.196777,0.685547,11917703837,1.625,-0.25,1.8125,11917703837,-0.0881958,0.392578,0.434326,0.805847,0.28603,0.788544,1.10828
11917711967,-1,-2,-1,-4,-4,0,-1,0,11917703837,-0.712891,0.196777,0.685547,11917703837,1.625,-0.25,1.8125,11917703837,-0.0881958,0.392578,0.434326,0.805847,0.28603,0.788544,1.10828
11917712759,-2,-2,-1,1,2,-2,-3,-3,11917703837,-0.712891,0.196777,0.685547,11917703837,1.625,-0.25,1.8125,11917703837,-0.0881958,0.392578,0.434326,0.805847,0.28603,0.788544,1.10828
11917712759,-1,-2,-1,0,-6,-5,-3,0,11917726441,-0.723145,0.200684,0.691406,11917726441,1.3125,-0.6875,1.1875,11917726441,-0.0878906,0.392517,0.434448,0.805847,0.286676,0.788059,1.10871
11917734472,-2,0,-1,-1,7,3,-2,-1,11917726441,-0.723145,0.200684,0.691406,11917726441,1.3125,-0.6875,1.1875,11917726441,-0.0878906,0.392517,0.434448,0.805847,0.286676,0.788059,1.10871
11917734472,0,0,1,-1,-9,0,-1,-1,11917726441,-0.723145,0.200684,0.691406,11917726441,1.3125,-0.6875,1.1875,11917726441,-0.0878906,0.392517,0.434448,0.805847,0.286676,0.788059,1.10871
11917735231,0,0,-2,0,5,0,-1,0,11917726441,-0.723145,0.200684,0.691406,11917726441,1.3125,-0.6875,1.1875,11917726441,-0.0878906,0.392517,0.434448,0.805847,0.286676,0.788059,1.10871
11917735231,0,0,-2,1,-2,-2,0,0,11917741274,-0.720215,0.202148,0.688477,11917741274,1.25,-0.5,1.75,11917741274,-0.0875854,0.392578,0.434631,0.805725,0.287637,0.787732,1.1095
11917748818,0,-2,-2,-3,-8,-4,-2,-1,11917741274,-0.720215,0.202148,0.688477,11917741274,1.25,-0.5,1.75,11917741274,-0.0875854,0.392578,0.434631,0.805725,0.287637,0.787732,1.1095
11917748818,-3,1,-2,-2,2,2,0,0,11917741274,-0.720215,0.202148,0.688477,11917741274,1.25,-0.5,1.75,11917741274,-0.0875854,0.392578,0.434631,0.805725,0.287637,0.787732,1.1095
11917756338,2,0,1,2,4,3,-1,-1,11917741274,-0.720215,0.202148,0.688477,11917741274,1.25,-0.5,1.75,11917741274,-0.0875854,0.392578,0.434631,0.805725,0.287637,0.787732,1.1095
11917756338,1,0,-2,0,1,-6,-1,0,11917763828,-0.716797,0.207031,0.686035,11917763828,0.6875,-0.375,0.9375,11917763828,-0.0875244,0.392578,0.434631,0.805725,0.287763,0.787656,1.10953
11917771916,1,0,0,-1,-1,-4,-2,-1,11917763828,-0.716797,0.207031,0.686035,11917763828,0.6875,-0.375,0.9375,11917763828,-0.0875244,0.392578,0.434631,0.805725,0.287763,0.787656,1.10953
11917771916,-1,-3,-3,-4,-22,-2,0,-2,11917763828,-0.716797,0.207031,0.686035,11917763828,0.6875,-0.375,0.9375,11917763828,-0.0875244,0.392578,0.434631,0.805725,0.287763,0.787656,1.10953
11917772697,-2,-2,-3,-4,6,-2,-2,0,11917763828,-0.716797,0.207031,0.686035,11917763828,0.6875,-0.375,0.9375,11917763828,-0.0875244,0.392578,0.434631,0.805725,0.287763,0.787656,1.10953
11917772697,0,-1,1,-2,1,-4,-1,0,11917786330,-0.71582,0.206055,0.692871,11917786330,-0.1875,0.3125,0.0625,11917786330,-0.0875244,0.392578,0.434631,0.805725,0.287763,0.787656,1.10953
11917794428,-1,-1,1,0,6,3,0,-4,11917786330,-0.71582,0.206055,0.692871,11917786330,-0.1875,0.3125,0.0625,11917786330,-0.0875244,0.392578,0.434631,0.805725,0.287763,0.787656,1.10953
11917794428,-2,-1,0,-2,-2,-4,-1,-1,11917786330,-0.71582,0.206055,0.692871,11917786330,-0.1875,0.3125,0.0625,11917786330,-0.0875244,0.392578,0.434631,0.805725,0.287763,0.787656,1.10953
11917795196,-1,-2,-1,1,4,2,-2,-1,11917786330,-0.71582,0.206055,0.692871,11917786330,-0.1875,0.3125,0.0625,11917786330,-0.0875244,0.392578,0.434631,0.805725,0.287763,0.787656,1.10953
11917795196,-1,-1,0,1,-5,-2,-2,-1,11917809483,-0.723633,0.20752,0.68457,11917809483,0.3125,0.6875,-0.0625,11917809483,-0.0875244,0.392578,0.434631,0.805725,0.287763,0.787656,1.10953
11917810226,-1,-1,-2,0,-4,-1,0,0,11917809483,-0.723633,0.20752,0.68457,11917809483,0.3125,0.6875,-0.0625,11917809483,-0.0875244,0.392578,0.434631,0.805725,0.287763,0.787656,1.10953
11917810226,0,-2,0,-1,2,-1,-3,0,11917809483,-0.723633,0.20752,0.68457,11917809483,0.3125,0.6875,-0.0625,11917809483,-0.0875244,0.392578,0.434631,0.805725,0.287763,0.787656,1.10953
11917816307,-2,-1,-1,-2,-5,-1,2,1,11917809483,-0.723633,0.20752,0.68457,11917809483,0.3125,0.6875,-0.0625,11917809483,-0.0875244,0.392578,0.434631,0.805725,0.287763,0.787656,1.10953
11917816307,0,0,0,-4,1,-1,1,-1,11917823821,-0.723633,0.198242,0.685547,11917823821,0.5,0.375,0.25,11917823821,-0.0875244,0.392578,0.434631,0.805725,0.287763,0.787656,1.10953
11917832121,0,-1,1,-2,0,0,-1,0,11917823821,-0.723633,0.198242,0.685547,11917823821,0.5,0.375,0.25,11917823821,-0.0875244,0.392578,0.434631,0.805725,0.287763,0.787656,1.10953
11917832121,-2,-2,-1,3,2,3,0,-2,11917823821,-0.723633,0.198242,0.685547,11917823821,0.5,0.375,0.25,11917823821,-0.0875244,0.392578,0.434631,0.805725,0.287763,0.787656,1.10953
11917832729,-1,-1,0,-3,8,-6,-1,-1,11917823821,-0.723633,0.198242,0.685547,11917823821,0.5,0.375,0.25,11917823821,-0.0875244,0.392578,0.434631,0.805725,0.287763,0.787656,1.10953
11917832729,0,-1,-3,-4,-22,1,-3,-1,11917846531,-0.71875,0.203613,0.680176,11917846531,-0.1875,0,0.5625,11917846531,-0.0875244,0.392578,0.434631,0.805725,0.287763,0.787656,1.10953
11917854325,-2,1,-1,1,2,-3,-2,-1,11917846531,-0.71875,0.203613,0.680176,11917846531,-0.1875,0,0.5625,11917846531,-0.0875244,0.392578,0.434631,0.805725,0.287763,0.787656,1.10953
11917854325,-2,1,-2,0,3,1,1,-1,11917846531,-0.71875,0.203613,0.680176,11917846531,-0.1875,0,0.5625,11917846531,-0.0875244,0.392578,0.434631,0.805725,0.287763,0.787656,1.10953
11917862058,-2,-1,0,-2,-1,-1,-2,-1,11917846531,-0.71875,0.203613,0.680176,11917846531,-0.1875,0,0.5625,11917846531,-0.0875244,0.392578,0.434631,0.805725,0.287763,0.787656,1.10953
11917862058,0,0,-1,1,6,-2,-1,-1,11917862837,-0.725586,0.198242,0.685547,11917862837,0.125,-0.375,0.625,11917862837,-0.0875854,0.392578,0.434631,0.805725,0.287637,0.787732,1.1095
11917868754,0,-2,-2,-3,-6,3,0,-1,11917862837,-0.725586,0.198242,0.685547,11917862837,0.125,-0.375,0.625,11917862837,-0.0875854,0.392578,0.434631,0.805725,0.287637,0.787732,1.1095
11917868754,3,0,0,0,1,0,0,-1,11917862837,-0.725586,0.198242,0.685547,11917862837,0.125,-0.375,0.625,11917862837,-0.0875854,0.392578,0.434631,0.805725,0.287637,0.787732,1.1095
11917876517,0,-3,-3,-3,-7,-2,-1,-2,11917862837,-0.725586,0.198242,0.685547,11917862837,0.125,-0.375,0.625,11917862837,-0.0875854,0.392578,0.434631,0.805725,0.287637,0.787732,1.1095
11917876517,-3,-2,-2,0,7,5,0,-1,11917884100,-0.729004,0.194336,0.67627,11917884100,0.125,-0.4375,0.0625,11917884100,-0.0875854,0.392639,0.43457,0.805725,0.287683,0.787856,1.10942
11917892021,-1,0,-2,-3,-4,-3,-1,-2,11917884100,-0.729004,0.194336,0.67627,11917884100,0.125,-0.4375,0.0625,11917884100,-0.0875854,0.392639,0.43457,0.805725,0.287683,0.787856,1.10942
11917892021,1,1,2,1,5,-6,-2,-1,11917884100,-0.729004,0.194336,0.67627,11917884100,0.125,-0.4375,0.0625,11917884100,-0.0875854,0.392639,0.43457,0.805725,0.287683,0.787856,1.10942
11917892825,1,2,1,2,-5,0,-1,1,11917884100,-0.729004,0.194336,0.67627,11917884100,0.125,-0.4375,0.0625,11917884100,-0.0875854,0.392639,0.43457,0.805725,0.287683,0.787856,1.10942
11917892825,-1,-2,-2,0,-1,-1,-1,0,11917906564,-0.729492,0.191895,0.683105,11917906564,0.375,-0.75,0.25,11917906564,-0.0876465,0.392639,0.43457,0.805725,0.287558,0.787931,1.10939
11917914499,-2,-2,-1,-5,-1,-1,-1,0,11917906564,-0.729492,0.191895,0.683105,11917906564,0.375,-0.75,0.25,11917906564,-0.0876465,0.392639,0.43457,0.805725,0.287558,0.787931,1.10939
11917914499,-1,-3,-4,-3,0,0,-3,-2,11917906564,-0.729492,0.191895,0.683105,11917906564,0.375,-0.75,0.25,11917906564,-0.0876465,0.392639,0.43457,0.805725,0.287558,0.787931,1.10939
11917915255,-1,-1,-1,-2,1,5,0,-1,11917906564,-0.729492,0.191895,0.683105,11917906564,0.375,-0.75,0.25,11917906564,-0.0876465,0.392639,0.43457,0.805725,0.287558,0.787931,1.10939
11917915255,0,1,2,3,1,1,1,0,11917921374,-0.723145,0.206055,0.6875,11917921374,-0.6875,-1.5625,0.1875,11917921374,-0.0875854,0.392395,0.434692,0.805786,0.287356,0.787396,1.10938
11917928964,0,-2,2,1,3,-8,-4,-1,11917921374,-0.723145,0.206055,0.6875,11917921374,-0.6875,-1.5625,0.1875,11917921374,-0.0875854,0.392395,0.434692,0.805786,0.287356,0.787396,1.10938
11917928964,0,-2,-2,-1,10,-1,-1,-1,11917921374,-0.723145,0.206055,0.6875,11917921374,-0.6875,-1.5625,0.1875,11917921374,-0.0875854,0.392395,0.434692,0.805786,0.287356,0.787396,1.10938
11917936314,-1,-1,-1,-4,-23,0,-1,-2,11917921374,-0.723145,0.206055,0.6875,11917921374,-0.6875,-1.5625,0.1875,11917921374,-0.0875854,0.392395,0.434692,0.805786,0.287356,0.787396,1.10938
11917936314,-1,1,-1,-3,1,-1,0,-2,11917944035,-0.717773,0.210938,0.685059,11917944035,-1.875,-1.9375,0.0625,11917944035,-0.0875854,0.392029,0.434875,0.805847,0.286874,0.786674,1.10932
11917952136,1,0,-2,0,-2,-3,-2,0,11917944035,-0.717773,0.210938,0.685059,11917944035,-1.875,-1.9375,0.0625,11917944035,-0.0875854,0.392029,0.434875,0.805847,0.286874,0.786674,1.10932
11917952136,-1,-1,-1,-2,-2,-1,1,-1,11917944035,-0.717773,0.210938,0.685059,11917944035,-1.875,-1.9375,0.0625,11917944035,-0.0875854,0.392029,0.434875,0.805847,0.286874,0.786674,1.10932
11917952866,-1,-2,-2,0,12,0,1,-1,11917944035,-0.717773,0.210938,0.685059,11917944035,-1.875,-1.9375,0.0625,11917944035,-0.0875854,0.392029,0.434875,0.805847,0.286874,0.786674,1.10932
11917952866,-1,-2,0,-4,-2,-1,-2,0,11917966578,-0.719727,0.204102,0.688477,11917966578,-1.25,-2.125,-0.1875,11917966578,-0.0875854,0.391663,0.434998,0.805969,0.286312,0.786004,1.10909
11917974689,-1,0,-2,-3,-1,1,0,-2,11917966578,-0.719727,0.204102,0.688477,11917966578,-1.25,-2.125,-0.1875,11917966578,-0.0875854,0.391663,0.434998,0.805969,0.286312,0.786004,1.10909
11917974689,-2,-1,-2,1,-4,-4,-2,-1,11917966578,-0.719727,0.204102,0.688477,11917966578,-1.25,-2.125,-0.1875,11917966578,-0.0875854,0.391663,0.434998,0.805969,0.286312,0.786004,1.10909
11917975326,0,-4,-2,-2,0,1,-2,0,11917966578,-0.719727,0.204102,0.688477,11917966578,-1.25,-2.125,-0.1875,11917966578,-0.0875854,0.391663,0.434998,0.805969,0.286312,0.786004,1.10909
11917975326,-1,-1,1,-3,-2,0,-1,-1,11917981535,-0.71875,0.191895,0.68457,11917981535,0.4375,-2.4375,-0.625,11917981535,-0.0875244,0.391357,0.434875,0.806213,0.285698,0.785473,1.10829
11917997030,0,-5,-3,3,1,4,-1,0,11917981535,-0.71875,0.191895,0.68457,11917981535,0.4375,-2.4375,-0.625,11917981535,-0.0875244,0.391357,0.434875,0.806213,0.285698,0.785473,1.10829
11917997030,-1,-2,-1,-2,-5,0,-1,0,11917981535,-0.71875,0.191895,0.68457,11917981535,0.4375,-2.4375,-0.625,11917981535,-0.0875244,0.391357,0.434875,0.806213,0.285698,0.785473,1.10829
11917997831,-1,1,-1,-2,1,-7,-2,-2,11917981535,-0.71875,0.191895,0.68457,11917981535,0.4375,-2.4375,-0.625,11917981535,-0.0875244,0.391357,0.434875,0.806213,0.285698,0.785473,1.10829
11917997831,-2,0,1,3,6,-3,-2,0,11918003857,-0.720215,0.206543,0.688477,11918003857,1.1875,-3,-0.1875,11918003857,-0.0870972,0.391052,0.434814,0.806458,0.285901,0.784507,1.10787
11918019506,0,2,-2,-2,-17,-1,-1,-1,11918003857,-0.720215,0.206543,0.688477,11918003857,1.1875,-3,-0.1875,11918003857,-0.0870972,0.391052,0.434814,0.806458,0.285901,0.784507,1.10787
11918019506,-2,-2,-2,-2,-2,1,0,-1,11918003857,-0.720215,0.206543,0.688477,11918003857,1.1875,-3,-0.1875,11918003857,-0.0870972,0.391052,0.434814,0.806458,0.285901,0.784507,1.10787
11918020305,-1,-2,-2,-2,0,-2,0,-1,11918003857,-0.720215,0.206543,0.688477,11918003857,1.1875,-3,-0.1875,11918003857,-0.0870972,0.391052,0.434814,0.806458,0.285901,0.784507,1.10787
11918020305,-2,-3,-2,-2,9,2,-1,-3,11918026407,-0.714355,0.211914,0.693359,11918026407,-0.6875,-2.75,-0.1875,11918026407,-0.0869141,0.390625,0.434937,0.806641,0.285592,0.783541,1.10766
11918034515,-1,0,2,4,0,-5,-3,-1,11918026407,-0.714355,0.211914,0.693359,11918026407,-0.6875,-2.75,-0.1875,11918026407,-0.0869141,0.390625,0.434937,0.806641,0.285592,0.783541,1.10766
11918034515,-1,2,1,0,-6,1,-2,-3,11918026407,-0.714355,0.211914,0.693359,11918026407,-0.6875,-2.75,-0.1875,11918026407,-0.0869141,0.390625,0.434937,0.806641,0.285592,0.783541,1.10766
11918035254,1,-1,-2,-2,0,-3,-1,-1,11918026407,-0.714355,0.211914,0.693359,11918026407,-0.6875,-2.75,-0.1875,11918026407,-0.0869141,0.390625,0.434937,0.806641,0.285592,0.783541,1.10766
11918035254,-1,-1,-4,-3,-8,-6,-4,0,11918041528,-0.710938,0.205566,0.69873,11918041528,-3,-2.5,0.4375,11918041528,-0.0870361,0.389954,0.435242,0.806702,0.284444,0.782305,1.10736
11918057099,-1,-1,-1,-1,1,2,-1,0,11918041528,-0.710938,0.205566,0.69873,11918041528,-3,-2.5,0.4375,11918041528,-0.0870361,0.389954,0.435242,0.806702,0.284444,0.782305,1.10736
11918057099,-2,0,-1,1,-1,2,2,-1,11918041528,-0.710938,0.205566,0.69873,11918041528,-3,-2.5,0.4375,11918041528,-0.0870361,0.389954,0.435242,0.806702,0.284444,0.782305,1.10736
11918057830,-2,-2,0,0,5,3,1,0,11918041528,-0.710938,0.205566,0.69873,11918041528,-3,-2.5,0.4375,11918041528,-0.0870361,0.389954,0.435242,0.806702,0.284444,0.782305,1.10736
11918057830,0,-1,-1,-2,-5,0,-1,-2,11918064057,-0.70459,0.194824,0.703613,11918064057,-2.5,-2.25,0.125,11918064057,-0.0871582,0.389282,0.435547,0.806885,0.283269,0.781204,1.10714
11918079676,-1,0,-2,2,2,0,-1,0,11918064057,-0.70459,0.194824,0.703613,11918064057,-2.5,-2.25,0.125,11918064057,-0.0871582,0.389282,0.435547,0.806885,0.283269,0.781204,1.10714
11918079676,0,-2,-2,-2,0,-5,-1,-1,11918064057,-0.70459,0.194824,0.703613,11918064057,-2.5,-2.25,0.125,11918064057,-0.0871582,0.389282,0.435547,0.806885,0.283269,0.781204,1.10714
11918080386,0,-2,0,2,8,6,0,0,11918064057,-0.70459,0.194824,0.703613,11918064057,-2.5,-2.25,0.125,11918064057,-0.0871582,0.389282,0.435547,0.806885,0.283269,0.781204,1.10714
11918080386,0,0,-3,-1,-8,-5,-2,-1,11918086357,-0.714355,0.190918,0.696777,11918086357,-0.25,-1.75,-1.5625,11918086357,-0.0872803,0.388916,0.435303,0.80719,0.282035,0.780796,1.10578
11918094608,1,-2,-3,-4,-12,-4,-1,1,11918086357,-0.714355,0.190918,0.696777,11918086357,-0.25,-1.75,-1.5625,11918086357,-0.0872803,0.388916,0.435303,0.80719,0.282035,0.780796,1.10578
11918094608,-1,-2,-3,-1,18,11,-1,-2,11918086357,-0.714355,0.190918,0.696777,11918086357,-0.25,-1.75,-1.5625,11918086357,-0.0872803,0.388916,0.435303,0.80719,0.282035,0.780796,1.10578
11918095247,-2,0,0,0,-6,-4,-1,-2,11918086357,-0.714355,0.190918,0.696777,11918086357,-0.25,-1.75,-1.5625,11918086357,-0.0872803,0.388916,0.435303,0.80719,0.282035,0.780796,1.10578
11918095247,-1,-2,0,0,4,1,0,0,11918101577,-0.719727,0.205566,0.695312,11918101577,0.375,-0.5,-2.125,11918101577,-0.0872803,0.388855,0.434998,0.807373,0.281562,0.780782,1.10479
11918117154,-1,-1,1,2,3,-3,-1,0,11918101577,-0.719727,0.205566,0.695312,11918101577,0.375,-0.5,-2.125,11918101577,-0.0872803,0.388855,0.434998,0.807373,0.281562,0.780782,1.10479
11918117154,-1,-2,-2,-3,-8,1,1,-1,11918101577,-0.719727,0.205566,0.695312,11918101577,0.375,-0.5,-2.125,11918101577,-0.0872803,0.388855,0.434998,0.807373,0.281562,0.780782,1.10479
11918117840,-1,-3,-1,0,-2,-10,-2,-2,11918101577,-0.719727,0.205566,0.695312,11918101577,0.375,-0.5,-2.125,11918101577,-0.0872803,0.388855,0.434998,0.807373,0.281562,0.780782,1.10479
11918117840,-2,-2,0,1,-2,2,-2,-2,11918123978,-0.706055,0.209961,0.695801,11918123978,-1.5625,-0.0625,-1.375,11918123978,-0.0874023,0.388733,0.434998,0.807434,0.28108,0.780721,1.10454
11918139656,-1,-2,-3,-5,0,-1,1,-1,11918123978,-0.706055,0.209961,0.695801,11918123978,-1.5625,-0.0625,-1.375,11918123978,-0.0874023,0.388733,0.434998,0.807434,0.28108,0.780721,1.10454
11918139656,0,-3,-1,-1,-4,-3,-1,0,11918123978,-0.706055,0.209961,0.695801,11918123978,-1.5625,-0.0625,-1.375,11918123978,-0.0874023,0.388733,0.434998,0.807434,0.28108,0.780721,1.10454
11918140332,0,-1,-3,-1,5,7,-1,-2,11918123978,-0.706055,0.209961,0.695801,11918123978,-1.5625,-0.0625,-1.375,11918123978,-0.0874023,0.388733,0.434998,0.807434,0.28108,0.780721,1.10454
11918140332,-3,-1,-1,0,-4,-4,0,-2,11918146546,-0.708984,0.20166,0.700684,11918146546,-4,0.125,-0.625,11918146546,-0.0879517,0.388306,0.435242,0.807434,0.27945,0.780483,1.10427
11918154539,-2,0,-1,-3,11,0,-1,-2,11918146546,-0.708984,0.20166,0.700684,11918146546,-4,0.125,-0.625,11918146546,-0.0879517,0.388306,0.435242,0.807434,0.27945,0.780483,1.10427
11918154539,0,0,0,-2,-21,-7,-2,-2,11918146546,-0.708984,0.20166,0.700684,11918146546,-4,0.125,-0.625,11918146546,-0.0879517,0.388306,0.435242,0.807434,0.27945,0.780483,1.10427
11918155324,-3,-1,-1,-2,-3,0,-1,0,11918146546,-0.708984,0.20166,0.700684,11918146546,-4,0.125,-0.625,11918146546,-0.0879517,0.388306,0.435242,0.807434,0.27945,0.780483,1.10427
11918155324,-1,0,-3,-3,-5,-3,-1,-2,11918161547,-0.722656,0.183594,0.703125,11918161547,-2.6875,0.625,-1.875,11918161547,-0.0886841,0.388123,0.435059,0.807556,0.277402,0.781052,1.10305
11918177142,-3,1,1,1,10,2,-3,-1,11918161547,-0.722656,0.183594,0.703125,11918161547,-2.6875,0.625,-1.875,11918161547,-0.0886841,0.388123,0.435059,0.807556,0.277402,0.781052,1.10305
11918177142,-1,-3,-3,1,3,-5,1,1,11918161547,-0.722656,0.183594,0.703125,11918161547,-2.6875,0.625,-1.875,11918161547,-0.0886841,0.388123,0.435059,0.807556,0.277402,0.781052,1.10305
11918177842,-1,-1,0,0,1,1,-1,-2,11918161547,-0.722656,0.183594,0.703125,11918161547,-2.6875,0.625,-1.875,11918161547,-0.0886841,0.388123,0.435059,0.807556,0.277402,0.781052,1.10305
11918177842,-2,-3,-1,3,-9,-3,0,-2,11918184009,-0.71875,0.166992,0.694824,11918184009,0.75,0.4375,-1.875,11918184009,-0.0890503,0.388062,0.434631,0.807739,0.276049,0.781455,1.10148
11918199718,-2,-2,-1,0,-2,3,1,0,11918184009,-0.71875,0.166992,0.694824,11918184009,0.75,0.4375,-1.875,11918184009,-0.0890503,0.388062,0.434631,0.807739,0.276049,0.781455,1.10148
11918199718,1,0,-1,-1,0,-3,-2,-1,11918184009,-0.71875,0.166992,0.694824,11918184009,0.75,0.4375,-1.875,11918184009,-0.0890503,0.388062,0.434631,0.807739,0.276049,0.781455,1.10148
11918200311,-1,1,-1,-2,-2,-4,-3,2,11918184009,-0.71875,0.166992,0.694824,11918184009,0.75,0.4375,-1.875,11918184009,-0.0890503,0.388062,0.434631,0.807739,0.276049,0.781455,1.10148
11918200311,-1,-2,-2,-2,4,4,0,1,11918206488,-0.713379,0.192871,0.686523,11918206488,0.9375,0.75,-0.6875,11918206488,-0.0890503,0.388062,0.434631,0.807739,0.276049,0.781455,1.10148
11918215727,-1,-1,-1,-2,-4,-5,-3,-3,11918206488,-0.713379,0.192871,0.686523,11918206488,0.9375,0.75,-0.6875,11918206488,-0.0890503,0.388062,0.434631,0.807739,0.276049,0.781455,1.10148
11918215727,-1,0,1,2,-1,-4,-1,-2,11918206488,-0.713379,0.192871,0.686523,11918206488,0.9375,0.75,-0.6875,11918206488,-0.0890503,0.388062,0.434631,0.807739,0.276049,0.781455,1.10148
11918229569,0,-1,-1,1,4,0,-1,0,11918206488,-0.713379,0.192871,0.686523,11918206488,0.9375,0.75,-0.6875,11918206488,-0.0890503,0.388062,0.434631,0.807739,0.276049,0.781455,1.10148
11918229569,0,-2,-3,-3,-2,2,-1,0,11918230387,-0.705566,0.207031,0.70459,11918230387,-2.4375,-0.0625,-0.4375,11918230387,-0.0892334,0.387817,0.434814,0.807739,0.275432,0.78117,1.10153
11918236944,1,-1,1,-1,-12,-11,0,0,11918230387,-0.705566,0.207031,0.70459,11918230387,-2.4375,-0.0625,-0.4375,11918230387,-0.0892334,0.387817,0.434814,0.807739,0.275432,0.78117,1.10153
11918236944,1,-1,0,-2,2,-1,-4,0,11918230387,-0.705566,0.207031,0.70459,11918230387,-2.4375,-0.0625,-0.4375,11918230387,-0.0892334,0.387817,0.434814,0.807739,0.275432,0.78117,1.10153
11918237725,-1,-1,-1,-1,-4,-3,-1,-1,11918230387,-0.705566,0.207031,0.70459,11918230387,-2.4375,-0.0625,-0.4375,11918230387,-0.0892334,0.387817,0.434814,0.807739,0.275432,0.78117,1.10153
11918237725,-1,-1,1,0,5,4,0,0,11918243836,-0.702637,0.20166,0.714844,11918243836,-3.8125,-0.1875,1.0625,11918243836,-0.0895386,0.387268,0.435303,0.807739,0.274346,0.780417,1.10194
11918259493,-1,-2,-1,0,0,3,0,-1,11918243836,-0.702637,0.20166,0.714844,11918243836,-3.8125,-0.1875,1.0625,11918243836,-0.0895386,0.387268,0.435303,0.807739,0.274346,0.780417,1.10194
11918259493,-1,-1,-4,-3,0,-2,-1,0,11918243836,-0.702637,0.20166,0.714844,11918243836,-3.8125,-0.1875,1.0625,11918243836,-0.0895386,0.387268,0.435303,0.807739,0.274346,0.780417,1.10194
11918260242,-1,0,-1,0,-1,0,-1,1,11918243836,-0.702637,0.20166,0.714844,11918243836,-3.8125,-0.1875,1.0625,11918243836,-0.0895386,0.387268,0.435303,0.807739,0.274346,0.780417,1.10194
11918260242,-2,0,0,2,1,-1,-1,-1,11918266391,-0.70459,0.181152,0.713379,11918266391,-0.3125,0.0625,1.6875,11918266391,-0.0894775,0.387024,0.435608,0.807678,0.274374,0.779798,1.10247
11918274448,-2,-1,-2,-1,-3,1,-2,-1,11918266391,-0.70459,0.181152,0.713379,11918266391,-0.3125,0.0625,1.6875,11918266391,-0.0894775,0.387024,0.435608,0.807678,0.274374,0.779798,1.10247
11918274448,-2,-1,1,3,3,-4,-2,0,11918266391,-0.70459,0.181152,0.713379,11918266391,-0.3125,0.0625,1.6875,11918266391,-0.0894775,0.387024,0.435608,0.807678,0.274374,0.779798,1.10247
11918275225,0,-2,-2,-3,-9,-3,-1,-1,11918266391,-0.70459,0.181152,0.713379,11918266391,-0.3125,0.0625,1.6875,11918266391,-0.0894775,0.387024,0.435608,0.807678,0.274374,0.779798,1.10247
11918275225,-1,-1,0,0,-1,-1,-1,-2,11918288877,-0.717773,0.177734,0.69873,11918288877,4,0.9375,1.1875,11918288877,-0.0891113,0.38739,0.435425,0.807678,0.275581,0.780135,1.10274
11918296947,0,-1,-2,-2,12,1,0,-2,11918288877,-0.717773,0.177734,0.69873,11918288877,4,0.9375,1.1875,11918288877,-0.0891113,0.38739,0.435425,0.807678,0.275581,0.780135,1.10274
11918296947,-1,-1,0,-1,-7,3,-1,-2,11918288877,-0.717773,0.177734,0.69873,11918288877,4,0.9375,1.1875,11918288877,-0.0891113,0.38739,0.435425,0.807678,0.275581,0.780135,1.10274
11918297732,0,-3,0,-1,-5,-3,0,0,11918288877,-0.717773,0.177734,0.69873,11918288877,4,0.9375,1.1875,11918288877,-0.0891113,0.38739,0.435425,0.807678,0.275581,0.780135,1.10274
11918297732,0,1,1,-2,0,-4,-1,-1,11918303843,-0.725586,0.194824,0.68457,11918303843,4.625,2.8125,1.25,11918303843,-0.0886841,0.388306,0.435181,0.807434,0.277885,0.781366,1.10371
11918319477,-2,0,-3,-2,-1,2,-1,-2,11918303843,-0.725586,0.194824,0.68457,11918303843,4.625,2.8125,1.25,11918303843,-0.0886841,0.388306,0.435181,0.807434,0.277885,0.781366,1.10371
11918319477,-2,-1,-3,-3,3,-3,-2,-1,11918303843,-0.725586,0.194824,0.68457,11918303843,4.625,2.8125,1.25,11918303843,-0.0886841,0.388306,0.435181,0.807434,0.277885,0.781366,1.10371
11918320286,-2,-2,0,1,-1,2,0,-1,11918303843,-0.725586,0.194824,0.68457,11918303843,4.625,2.8125,1.25,11918303843,-0.0886841,0.388306,0.435181,0.807434,0.277885,0.781366,1.10371
11918320286,0,0,-2,-2,-5,-4,-1,-1,11918326407,-0.726074,0.202637,0.682617,11918326407,0.9375,3.25,1.9375,11918326407,-0.0886841,0.388977,0.435303,0.807007,0.279313,0.782456,1.1051
11918342648,-1,1,-1,-1,4,5,0,0,11918326407,-0.726074,0.202637,0.682617,11918326407,0.9375,3.25,1.9375,11918326407,-0.0886841,0.388977,0.435303,0.807007,0.279313,0.782456,1.1051
11918342648,0,0,-1,-1,-2,-4,-2,-1,11918326407,-0.726074,0.202637,0.682617,11918326407,0.9375,3.25,1.9375,11918326407,-0.0886841,0.388977,0.435303,0.807007,0.279313,0.782456,1.1051
11918343426,0,0,-2,-3,-1,-3,0,-1,11918326407,-0.726074,0.202637,0.682617,11918326407,0.9375,3.25,1.9375,11918326407,-0.0886841,0.388977,0.435303,0.807007,0.279313,0.782456,1.1051
11918343426,-1,-1,-2,0,1,0,-1,1,11918344299,-0.723633,0.19043,0.68457,11918344299,-2.0625,3,2.1875,11918344299,-0.0891724,0.389343,0.435669,0.80658,0.279456,0.783512,1.10648
11918357135,-1,-2,0,0,-3,-3,-2,-1,11918344299,-0.723633,0.19043,0.68457,11918344299,-2.0625,3,2.1875,11918344299,-0.0891724,0.389343,0.435669,0.80658,0.279456,0.783512,1.10648
11918357135,1,-2,-1,0,-2,-1,-1,-1,11918344299,-0.723633,0.19043,0.68457,11918344299,-2.0625,3,2.1875,11918344299,-0.0891724,0.389343,0.435669,0.80658,0.279456,0.783512,1.10648
11918357858,-1,-3,-1,-1,-2,0,-1,0,11918344299,-0.723633,0.19043,0.68457,11918344299,-2.0625,3,2.1875,11918344299,-0.0891724,0.389343,0.435669,0.80658,0.279456,0.783512,1.10648
11918357858,0,-1,-2,0,0,-2,0,1,11918364053,-0.726562,0.187012,0.685547,11918364053,-0.75,2.625,1.8125,11918364053,-0.0895386,0.389771,0.435852,0.806213,0.279752,0.784579,1.10749
11918379548,0,-2,-2,-1,-3,0,-1,-1,11918364053,-0.726562,0.187012,0.685547,11918364053,-0.75,2.625,1.8125,11918364053,-0.0895386,0.389771,0.435852,0.806213,0.279752,0.784579,1.10749
11918379548,-3,-2,0,-5,-3,0,-1,-1,11918364053,-0.726562,0.187012,0.685547,11918364053,-0.75,2.625,1.8125,11918364053,-0.0895386,0.389771,0.435852,0.806213,0.279752,0.784579,1.10749
11918380335,-1,0,1,4,-1,-3,0,-3,11918364053,-0.726562,0.187012,0.685547,11918364053,-0.75,2.625,1.8125,11918364053,-0.0895386,0.389771,0.435852,0.806213,0.279752,0.784579,1.10749
11918380335,0,-2,-1,-3,-2,0,-2,1,11918386382,-0.731445,0.187012,0.665039,11918386382,2.5625,2.0625,0,11918386382,-0.0895386,0.390503,0.435547,0.80603,0.280788,0.78597,1.10776
11918394275,-1,1,-3,-1,-2,-3,0,-1,11918386382,-0.731445,0.187012,0.665039,11918386382,2.5625,2.0625,0,11918386382,-0.0895386,0.390503,0.435547,0.80603,0.280788,0.78597,1.10776
11918394275,-2,0,-3,-3,3,2,0,-2,11918386382,-0.731445,0.187012,0.665039,11918386382,2.5625,2.0625,0,11918386382,-0.0895386,0.390503,0.435547,0.80603,0.280788,0.78597,1.10776
11918401956,0,1,0,3,1,-2,-1,-2,11918386382,-0.731445,0.187012,0.665039,11918386382,2.5625,2.0625,0,11918386382,-0.0895386,0.390503,0.435547,0.80603,0.280788,0.78597,1.10776
11918401956,-1,-1,-1,-5,-8,-6,-1,0,11918402812,-0.745117,0.191895,0.671387,11918402812,3.6875,1.4375,-1.5,11918402812,-0.0894165,0.391235,0.434937,0.80603,0.281707,0.787337,1.10722
11918417024,-1,-2,1,3,-1,4,-1,-2,11918402812,-0.745117,0.191895,0.671387,11918402812,3.6875,1.4375,-1.5,11918402812,-0.0894165,0.391235,0.434937,0.80603,0.281707,0.787337,1.10722
11918417024,-2,-1,-2,-1,1,1,2,-1,11918402812,-0.745117,0.191895,0.671387,11918402812,3.6875,1.4375,-1.5,11918402812,-0.0894165,0.391235,0.434937,0.80603,0.281707,0.787337,1.10722
11918417757,0,0,-3,-4,-2,1,-1,-1,11918402812,-0.745117,0.191895,0.671387,11918402812,3.6875,1.4375,-1.5,11918402812,-0.0894165,0.391235,0.434937,0.80603,0.281707,0.787337,1.10722
11918417757,-1,-2,1,2,8,1,0,-1,11918423848,-0.734375,0.224609,0.683105,11918423848,-0.375,0.125,-0.6875,11918423848,-0.0894165,0.391296,0.434937,0.80603,0.281817,0.787476,1.10734
11918439943,0,-2,1,-3,-4,-2,-1,0,11918423848,-0.734375,0.224609,0.683105,11918423848,-0.375,0.125,-0.6875,11918423848,-0.0894165,0.391296,0.434937,0.80603,0.281817,0.787476,1.10734
11918439943,-2,-1,0,-1,-4,1,0,2,11918423848,-0.734375,0.224609,0.683105,11918423848,-0.375,0.125,-0.6875,11918423848,-0.0894165,0.391296,0.434937,0.80603,0.281817,0.787476,1.10734
11918440773,-2,-1,-1,-2,-4,-8,0,-2,11918423848,-0.734375,0.224609,0.683105,11918423848,-0.375,0.125,-0.6875,11918423848,-0.0894165,0.391296,0.434937,0.80603,0.281817,0.787476,1.10734
11918440773,0,-1,-2,-3,-1,-3,-1,-2,11918446343,-0.705078,0.234375,0.700684,11918446343,-5.375,-2.125,-0.3125,11918446343,-0.0895386,0.390564,0.435486,0.80603,0.280833,0.786094,1.10768
11918454527,-2,0,0,-1,-1,-1,0,0,11918446343,-0.705078,0.234375,0.700684,11918446343,-5.375,-2.125,-0.3125,11918446343,-0.0895386,0.390564,0.435486,0.80603,0.280833,0.786094,1.10768
11918454527,-2,0,1,-1,0,1,-2,-1,11918446343,-0.705078,0.234375,0.700684,11918446343,-5.375,-2.125,-0.3125,11918446343,-0.0895386,0.390564,0.435486,0.80603,0.280833,0.786094,1.10768
11918455274,0,0,-1,-1,1,1,-1,0,11918446343,-0.705078,0.234375,0.700684,11918446343,-5.375,-2.125,-0.3125,11918446343,-0.0895386,0.390564,0.435486,0.80603,0.280833,0.786094,1.10768
11918455274,0,-2,-2,-3,0,-2,-3,-1,11918461364,-0.691406,0.20166,0.722656,11918461364,-5.4375,-3.875,-0.75,11918461364,-0.0898438,0.38916,0.435913,0.806458,0.278039,0.783849,1.10653
11918476994,-1,0,-1,0,-2,-1,-2,0,11918461364,-0.691406,0.20166,0.722656,11918461364,-5.4375,-3.875,-0.75,11918461364,-0.0898438,0.38916,0.435913,0.806458,0.278039,0.783849,1.10653
11918476994,0,-1,2,2,2,-1,1,-1,11918461364,-0.691406,0.20166,0.722656,11918461364,-5.4375,-3.875,-0.75,11918461364,-0.0898438,0.38916,0.435913,0.806458,0.278039,0.783849,1.10653
11918477757,0,0,0,-5,-10,-6,1,-2,11918461364,-0.691406,0.20166,0.722656,11918461364,-5.4375,-3.875,-0.75,11918461364,-0.0898438,0.38916,0.435913,0.806458,0.278039,0.783849,1.10653
11918477757,-1,-1,1,-1,3,7,2,-2,11918483859,-0.694336,0.169434,0.718262,11918483859,0.9375,-4.8125,-2.5,11918483859,-0.0896606,0.388062,0.435608,0.80719,0.275957,0.781849,1.10402
11918499517,-1,-2,-2,-3,7,1,-2,0,11918483859,-0.694336,0.169434,0.718262,11918483859,0.9375,-4.8125,-2.5,11918483859,-0.0896606,0.388062,0.435608,0.80719,0.275957,0.781849,1.10402
11918499517,0,0,-1,-1,-10,-5,-4,-1,11918483859,-0.694336,0.169434,0.718262,11918483859,0.9375,-4.8125,-2.5,11918483859,-0.0896606,0.388062,0.435608,0.80719,0.275957,0.781849,1.10402
11918500258,-2,-1,-2,-2,-2,-1,-3,-1,11918483859,-0.694336,0.169434,0.718262,11918483859,0.9375,-4.8125,-2.5,11918483859,-0.0896606,0.388062,0.435608,0.80719,0.275957,0.781849,1.10402
11918500258,-2,0,0,0,-2,-6,-2,-2,11918506397,-0.703613,0.180176,0.70752,11918506397,7.0625,-4.5625,-3.5,11918506397,-0.088623,0.387695,0.434692,0.807983,0.276281,0.780381,1.10135
11918514486,-1,0,0,-2,-2,-1,1,-1,11918506397,-0.703613,0.180176,0.70752,11918506397,7.0625,-4.5625,-3.5,11918506397,-0.088623,0.387695,0.434692,0.807983,0.276281,0.780381,1.10135
11918514486,0,-1,-1,0,3,-1,0,1,11918506397,-0.703613,0.180176,0.70752,11918506397,7.0625,-4.5625,-3.5,11918506397,-0.088623,0.387695,0.434692,0.807983,0.276281,0.780381,1.10135
11918515296,0,0,1,0,3,3,0,-1,11918506397,-0.703613,0.180176,0.70752,11918506397,7.0625,-4.5625,-3.5,11918506397,-0.088623,0.387695,0.434692,0.807983,0.276281,0.780381,1.10135
11918515296,-2,-1,-2,-2,-3,-1,-1,-1,11918521358,-0.726562,0.196289,0.696777,11918521358,6.4375,-2.875,-3.25,11918521358,-0.0877686,0.387756,0.433838,0.808472,0.27713,0.779796,1.09942
11918536980,0,1,0,0,4,-1,-3,-3,11918521358,-0.726562,0.196289,0.696777,11918521358,6.4375,-2.875,-3.25,11918521358,-0.0877686,0.387756,0.433838,0.808472,0.27713,0.779796,1.09942
11918536980,-2,0,-1,-1,-5,-1,-2,-2,11918521358,-0.726562,0.196289,0.696777,11918521358,6.4375,-2.875,-3.25,11918521358,-0.0877686,0.387756,0.433838,0.808472,0.27713,0.779796,1.09942
11918537801,-1,-1,0,-2,1,4,1,0,11918521358,-0.726562,0.196289,0.696777,11918521358,6.4375,-2.875,-3.25,11918521358,-0.0877686,0.387756,0.433838,0.808472,0.27713,0.779796,1.09942
11918537801,-1,-1,0,-1,-3,-5,-2,0,11918543833,-0.72998,0.203125,0.683105,11918543833,2.625,-0.75,-2.5625,11918543833,-0.0875244,0.388,0.433228,0.808655,0.277379,0.780103,1.09813
11918559520,-2,-3,-3,-2,-3,-8,-1,-1,11918543833,-0.72998,0.203125,0.683105,11918543833,2.625,-0.75,-2.5625,11918543833,-0.0875244,0.388,0.433228,0.808655,0.277379,0.780103,1.09813
11918559520,1,-2,-2,-3,-3,-2,0,0,11918543833,-0.72998,0.203125,0.683105,11918543833,2.625,-0.75,-2.5625,11918543833,-0.0875244,0.388,0.433228,0.808655,0.277379,0.780103,1.09813
11918560247,-2,-2,-1,0,1,2,-2,-2,11918543833,-0.72998,0.203125,0.683105,11918543833,2.625,-0.75,-2.5625,11918543833,-0.0875244,0.388,0.433228,0.808655,0.277379,0.780103,1.09813
11918560247,-1,-1,-1,-2,-2,5,-1,-2,11918566457,-0.726562,0.19043,0.681152,11918566457,-1,0.875,-1.1875,11918566457,-0.0879517,0.388184,0.433044,0.808655,0.276633,0.780996,1.09766
11918573832,-1,0,2,0,-4,-2,0,-1,11918566457,-0.726562,0.19043,0.681152,11918566457,-1,0.875,-1.1875,11918566457,-0.0879517,0.388184,0.433044,0.808655,0.276633,0.780996,1.09766
11918573832,-1,-2,-2,-2,-3,-1,-2,-3,11918566457,-0.726562,0.19043,0.681152,11918566457,-1,0.875,-1.1875,11918566457,-0.0879517,0.388184,0.433044,0.808655,0.276633,0.780996,1.09766
11918581979,-2,0,-2,-1,4,-4,0,2,11918566457,-0.726562,0.19043,0.681152,11918566457,-1,0.875,-1.1875,11918566457,-0.0879517,0.388184,0.433044,0.808655,0.276633,0.780996,1.09766
11918581979,-3,-2,-2,-2,-1,4,0,-1,11918582765,-0.71582,0.188477,0.682129,11918582765,-2.25,1.75,0.875,11918582765,-0.0884399,0.388367,0.433289,0.808411,0.276269,0.781802,1.0984
11918596955,-2,-1,-1,2,1,-2,-2,-1,11918582765,-0.71582,0.188477,0.682129,11918582765,-2.25,1.75,0.875,11918582765,-0.0884399,0.388367,0.433289,0.808411,0.276269,0.781802,1.0984
11918596955,-1,-1,-1,0,2,0,1,0,11918582765,-0.71582,0.188477,0.682129,11918582765,-2.25,1.75,0.875,11918582765,-0.0884399,0.388367,0.433289,0.808411,0.276269,0.781802,1.0984
11918597757,0,0,-1,-1,-8,1,0,-1,11918582765,-0.71582,0.188477,0.682129,11918582765,-2.25,1.75,0.875,11918582765,-0.0884399,0.388367,0.433289,0.808411,0.276269,0.781802,1.0984
11918597757,-1,-1,0,2,-4,-2,-1,-1,11918603882,-0.720703,0.192871,0.702148,11918603882,-2.0625,1.1875,1.5625,11918603882,-0.0887451,0.388367,0.433594,0.808228,0.276007,0.782051,1.09913
11918619477,0,-1,-2,-2,-1,2,-1,-1,11918603882,-0.720703,0.192871,0.702148,11918603882,-2.0625,1.1875,1.5625,11918603882,-0.0887451,0.388367,0.433594,0.808228,0.276007,0.782051,1.09913
11918619477,-1,1,0,-3,4,0,-1,0,11918603882,-0.720703,0.192871,0.702148,11918603882,-2.0625,1.1875,1.5625,11918603882,-0.0887451,0.388367,0.433594,0.808228,0.276007,0.782051,1.09913
11918620220,0,-1,0,-1,0,-3,-1,0,11918603882,-0.720703,0.192871,0.702148,11918603882,-2.0625,1.1875,1.5625,11918603882,-0.0887451,0.388367,0.433594,0.808228,0.276007,0.782051,1.09913
11918620220,-2,1,-2,-4,-3,-3,0,0,11918626421,-0.717773,0.185059,0.704102,11918626421,0.125,0.5,2.5625,11918626421,-0.0886841,0.388367,0.433899,0.808044,0.276498,0.781852,1.10004
11918634482,0,-2,-1,3,4,2,0,0,11918626421,-0.717773,0.185059,0.704102,11918626421,0.125,0.5,2.5625,11918626421,-0.0886841,0.388367,0.433899,0.808044,0.276498,0.781852,1.10004
11918634482,-1,-2,-1,0,-1,-1,0,-1,11918626421,-0.717773,0.185059,0.704102,11918626421,0.125,0.5,2.5625,11918626421,-0.0886841,0.388367,0.433899,0.808044,0.276498,0.781852,1.10004
11918641770,-1,-1,-1,0,0,-2,1,-1,11918626421,-0.717773,0.185059,0.704102,11918626421,0.125,0.5,2.5625,11918626421,-0.0886841,0.388367,0.433899,0.808044,0.276498,0.781852,1.10004
11918641770,-1,-2,0,-1,-1,0,0,1,11918648912,-0.696289,0.181152,0.70166,11918648912,2.5625,-0.8125,3,11918648912,-0.0881348,0.388184,0.434204,0.808044,0.277622,0.78084,1.10096
11918657005,0,-1,-2,-3,-4,-3,-1,1,11918648912,-0.696289,0.181152,0.70166,11918648912,2.5625,-0.8125,3,11918648912,-0.0881348,0.388184,0.434204,0.808044,0.277622,0.78084,1.10096
11918657005,0,0,-1,1,-1,1,-1,-1,11918648912,-0.696289,0.181152,0.70166,11918648912,2.5625,-0.8125,3,11918648912,-0.0881348,0.388184,0.434204,0.808044,0.277622,0.78084,1.10096
11918657751,-1,-1,1,-2,0,1,0,-1,11918648912,-0.696289,0.181152,0.70166,11918648912,2.5625,-0.8125,3,11918648912,-0.0881348,0.388184,0.434204,0.808044,0.277622,0.78084,1.10096
11918657751,-1,-1,-2,0,2,-2,-1,-2,11918663846,-0.707031,0.1875,0.694336,11918663846,3.8125,-1.6875,2.375,11918663846,-0.0874023,0.388184,0.434265,0.808105,0.279174,0.780026,1.10155
11918679477,-2,0,0,1,1,-2,-1,-1,11918663846,-0.707031,0.1875,0.694336,11918663846,3.8125,-1.6875,2.375,11918663846,-0.0874023,0.388184,0.434265,0.808105,0.279174,0.780026,1.10155
11918679477,-1,0,-1,0,-17,-5,-2,0,11918663846,-0.707031,0.1875,0.694336,11918663846,3.8125,-1.6875,2.375,11918663846,-0.0874023,0.388184,0.434265,0.808105,0.279174,0.780026,1.10155
11918680291,-2,-2,-2,-1,8,4,-1,-2,11918663846,-0.707031,0.1875,0.694336,11918663846,3.8125,-1.6875,2.375,11918663846,-0.0874023,0.388184,0.434265,0.808105,0.279174,0.780026,1.10155
11918680291,-1,-2,0,3,-1,-3,-3,-2,11918694535,-0.727051,0.206543,0.689941,11918694535,2.3125,-2.0625,2.75,11918694535,-0.0866699,0.388245,0.434509,0.807983,0.281067,0.779197,1.10274
11918695299,1,-4,-4,-9,-13,-2,-1,-2,11918694535,-0.727051,0.206543,0.689941,11918694535,2.3125,-2.0625,2.75,11918694535,-0.0866699,0.388245,0.434509,0.807983,0.281067,0.779197,1.10274
11918695299,-1,0,1,3,7,-2,-1,-1,11918694535,-0.727051,0.206543,0.689941,11918694535,2.3125,-2.0625,2.75,11918694535,-0.0866699,0.388245,0.434509,0.807983,0.281067,0.779197,1.10274
11918702010,-2,-3,-2,-3,-2,-2,-2,0,11918694535,-0.727051,0.206543,0.689941,11918694535,2.3125,-2.0625,2.75,11918694535,-0.0866699,0.388245,0.434509,0.807983,0.281067,0.779197,1.10274
11918702010,-1,-1,-3,-4,-3,-2,0,-1,11918702808,-0.717285,0.205566,0.689453,11918702808,0.1875,-2.5625,3.625,11918702808,-0.0861816,0.388062,0.435059,0.807861,0.282344,0.778185,1.10433
11918716966,-1,3,5,6,2,2,-2,0,11918702808,-0.717285,0.205566,0.689453,11918702808,0.1875,-2.5625,3.625,11918702808,-0.0861816,0.388062,0.435059,0.807861,0.282344,0.778185,1.10433
11918716966,1,-3,2,3,8,3,0,-2,11918702808,-0.717285,0.205566,0.689453,11918702808,0.1875,-2.5625,3.625,11918702808,-0.0861816,0.388062,0.435059,0.807861,0.282344,0.778185,1.10433
11918717748,-2,-3,-2,-2,-6,-5,-3,-1,11918702808,-0.717285,0.205566,0.689453,11918702808,0.1875,-2.5625,3.625,11918702808,-0.0861816,0.388062,0.435059,0.807861,0.282344,0.778185,1.10433
11918717748,0,-1,-1,-2,2,0,0,1,11918723882,-0.70459,0.205078,0.696777,11918723882,-1.5625,-2.125,3.4375,11918723882,-0.0859375,0.387634,0.43573,0.807678,0.282826,0.776881,1.10572
11918739455,-3,-1,-3,-4,-6,-6,0,-1,11918723882,-0.70459,0.205078,0.696777,11918723882,-1.5625,-2.125,3.4375,11918723882,-0.0859375,0.387634,0.43573,0.807678,0.282826,0.776881,1.10572
11918739455,-2,-2,-3,-4,0,-1,0,-1,11918723882,-0.70459,0.205078,0.696777,11918723882,-1.5625,-2.125,3.4375,11918723882,-0.0859375,0.387634,0.43573,0.807678,0.282826,0.776881,1.10572
11918740236,0,-1,0,1,-2,2,0,-1,11918723882,-0.70459,0.205078,0.696777,11918723882,-1.5625,-2.125,3.4375,11918723882,-0.0859375,0.387634,0.43573,0.807678,0.282826,0.776881,1.10572
11918740236,-2,0,0,1,6,-1,-3,-1,11918746373,-0.710449,0.208984,0.694336,11918746373,-0.9375,-1.375,2.0625,11918746373,-0.0857544,0.387451,0.436096,0.807617,0.28327,0.776264,1.10661
11918762656,-1,0,0,0,-6,-1,0,-2,11918746373,-0.710449,0.208984,0.694336,11918746373,-0.9375,-1.375,2.0625,11918746373,-0.0857544,0.387451,0.436096,0.807617,0.28327,0.776264,1.10661
11918762656,1,-1,-1,-4,-1,0,0,0,11918746373,-0.710449,0.208984,0.694336,11918746373,-0.9375,-1.375,2.0625,11918746373,-0.0857544,0.387451,0.436096,0.807617,0.28327,0.776264,1.10661
11918763421,-1,-2,-2,-1,1,-3,0,-1,11918746373,-0.710449,0.208984,0.694336,11918746373,-0.9375,-1.375,2.0625,11918746373,-0.0857544,0.387451,0.436096,0.807617,0.28327,0.776264,1.10661
11918763421,0,0,0,0,-2,0,-2,0,11918764304,-0.727539,0.213867,0.697754,11918764304,0.125,-0.5,2,11918764304,-0.0855103,0.387573,0.436401,0.807434,0.284346,0.776117,1.10783
11918777018,-1,0,-3,-2,4,-1,-2,-1,11918764304,-0.727539,0.213867,0.697754,11918764304,0.125,-0.5,2,11918764304,-0.0855103,0.387573,0.436401,0.807434,0.284346,0.776117,1.10783
11918777018,-1,-1,-3,2,0,-2,0,-1,11918764304,-0.727539,0.213867,0.697754,11918764304,0.125,-0.5,2,11918764304,-0.0855103,0.387573,0.436401,0.807434,0.284346,0.776117,1.10783
11918777750,0,0,-1,-3,0,1,1,0,11918764304,-0.727539,0.213867,0.697754,11918764304,0.125,-0.5,2,11918764304,-0.0855103,0.387573,0.436401,0.807434,0.284346,0.776117,1.10783
11918777750,0,-1,2,4,-2,-1,-2,-1,11918783853,-0.706543,0.210449,0.700684,11918783853,0.75,0,2.25,11918783853,-0.085144,0.387634,0.436707,0.807251,0.285561,0.775681,1.10899
11918799498,-2,-3,-2,-1,1,1,-1,0,11918783853,-0.706543,0.210449,0.700684,11918783853,0.75,0,2.25,11918783853,-0.085144,0.387634,0.436707,0.807251,0.285561,0.775681,1.10899
11918799498,-2,1,-5,-4,-2,1,0,1,11918783853,-0.706543,0.210449,0.700684,11918783853,0.75,0,2.25,11918783853,-0.085144,0.387634,0.436707,0.807251,0.285561,0.775681,1.10899
11918800252,-2,-2,0,1,1,1,-1,1,11918783853,-0.706543,0.210449,0.700684,11918783853,0.75,0,2.25,11918783853,-0.085144,0.387634,0.436707,0.807251,0.285561,0.775681,1.10899
11918800252,-1,1,1,0,-2,-1,-2,-2,11918806324,-0.700684,0.211426,0.698242,11918806324,-0.4375,0.25,0.8125,11918806324,-0.085144,0.387634,0.436768,0.807251,0.285624,0.775695,1.10919
11918813849,0,-3,0,-3,0,3,-1,0,11918806324,-0.700684,0.211426,0.698242,11918806324,-0.4375,0.25,0.8125,11918806324,-0.085144,0.387634,0.436768,0.807251,0.285624,0.775695,1.10919
11918813849,-1,-2,2,-2,-2,1,-2,-1,11918806324,-0.700684,0.211426,0.698242,11918806324,-0.4375,0.25,0.8125,11918806324,-0.085144,0.387634,0.436768,0.807251,0.285624,0.775695,1.10919
11918822008,0,0,-2,-1,4,0,-2,-1,11918806324,-0.700684,0.211426,0.698242,11918806324,-0.4375,0.25,0.8125,11918806324,-0.085144,0.387634,0.436768,0.807251,0.285624,0.775695,1.10919
11918822008,0,1,-3,-3,-3,-6,0,-2,11918822801,-0.710449,0.211914,0.697266,11918822801,-0.8125,0.125,-0.125,11918822801,-0.085144,0.387634,0.436768,0.807251,0.285624,0.775695,1.10919
11918845167,-2,-2,0,-2,6,3,-1,-1,11918822801,-0.710449,0.211914,0.697266,11918822801,-0.8125,0.125,-0.125,11918822801,-0.085144,0.387634,0.436768,0.807251,0.285624,0.775695,1.10919
11918845167,-1,-1,0,-4,-7,-3,-1,-1,11918822801,-0.710449,0.211914,0.697266,11918822801,-0.8125,0.125,-0.125,11918822801,-0.085144,0.387634,0.436768,0.807251,0.285624,0.775695,1.10919
11918845964,-1,-1,2,-2,-7,-3,-1,-1,11918822801,-0.710449,0.211914,0.697266,11918822801,-0.8125,0.125,-0.125,11918822801,-0.085144,0.387634,0.436768,0.807251,0.285624,0.775695,1.10919
11918845964,-2,0,-2,-3,3,2,-1,-1,11918846797,-0.713379,0.197754,0.697266,11918846797,-0.5,-0.3125,-0.625,11918846797,-0.085144,0.387634,0.436768,0.807251,0.285624,0.775695,1.10919
11918859444,-1,1,-1,4,1,-5,-1,0,11918846797,-0.713379,0.197754,0.697266,11918846797,-0.5,-0.3125,-0.625,11918846797,-0.085144,0.387634,0.436768,0.807251,0.285624,0.775695,1.10919
11918859444,-2,-1,-2,0,5,0,-2,-2,11918846797,-0.713379,0.197754,0.697266,11918846797,-0.5,-0.3125,-0.625,11918846797,-0.085144,0.387634,0.436768,0.807251,0.285624,0.775695,1.10919
11918860228,-1,0,-2,1,-3,-1,-1,-2,11918846797,-0.713379,0.197754,0.697266,11918846797,-0.5,-0.3125,-0.625,11918846797,-0.085144,0.387634,0.436768,0.807251,0.285624,0.775695,1.10919
11918860228,1,-2,-2,-1,-9,-1,0,0,11918866412,-0.709473,0.200684,0.699219,11918866412,-0.4375,-0.6875,-1.1875,11918866412,-0.0852661,0.38739,0.436646,0.807434,0.284771,0.775462,1.10839
11918882654,0,-2,-4,-5,11,5,-2,0,11918866412,-0.709473,0.200684,0.699219,11918866412,-0.4375,-0.6875,-1.1875,11918866412,-0.0852661,0.38739,0.436646,0.807434,0.284771,0.775462,1.10839
11918882654,0,-1,-3,1,-2,-3,-1,-2,11918866412,-0.709473,0.200684,0.699219,11918866412,-0.4375,-0.6875,-1.1875,11918866412,-0.0852661,0.38739,0.436646,0.807434,0.284771,0.775462,1.10839
11918883428,1,-1,-2,-2,-3,0,-2,1,11918866412,-0.709473,0.200684,0.699219,11918866412,-0.4375,-0.6875,-1.1875,11918866412,-0.0852661,0.38739,0.436646,0.807434,0.284771,0.775462,1.10839
11918883428,-2,-2,0,-1,-1,1,-1,-2,11918884263,-0.712891,0.206543,0.694336,11918884263,-0.5625,-1.1875,-1.5,11918884263,-0.0853271,0.387207,0.436462,0.807556,0.284102,0.775211,1.10751
11918897012,-1,-2,0,-1,-3,-4,-1,-1,11918884263,-0.712891,0.206543,0.694336,11918884263,-0.5625,-1.1875,-1.5,11918884263,-0.0853271,0.387207,0.436462,0.807556,0.284102,0.775211,1.10751
11918897012,1,0,-1,0,-7,0,-2,-1,11918884263,-0.712891,0.206543,0.694336,11918884263,-0.5625,-1.1875,-1.5,11918884263,-0.0853271,0.387207,0.436462,0.807556,0.284102,0.775211,1.10751
11918897795,-2,-2,-2,-1,0,-3,-2,0,11918884263,-0.712891,0.206543,0.694336,11918884263,-0.5625,-1.1875,-1.5,11918884263,-0.0853271,0.387207,0.436462,0.807556,0.284102,0.775211,1.10751
11918897795,-1,0,1,-1,2,-1,-1,-3,11918903862,-0.724121,0.202637,0.694336,11918903862,-0.5625,-1.25,-1.4375,11918903862,-0.0854492,0.387085,0.436279,0.807739,0.283403,0.775239,1.10674
11918919483,1,0,-1,0,0,0,0,0,11918903862,-0.724121,0.202637,0.694336,11918903862,-0.5625,-1.25,-1.4375,11918903862,-0.0854492,0.387085,0.436279,0.807739,0.283403,0.775239,1.10674
11918919483,-1,0,-1,0,6,-2,-1,1,11918903862,-0.724121,0.202637,0.694336,11918903862,-0.5625,-1.25,-1.4375,11918903862,-0.0854492,0.387085,0.436279,0.807739,0.283403,0.775239,1.10674
11918920269,-2,1,0,-2,-11,-3,0,-1,11918903862,-0.724121,0.202637,0.694336,11918903862,-0.5625,-1.25,-1.4375,11918903862,-0.0854492,0.387085,0.436279,0.807739,0.283403,0.775239,1.10674
11918920269,-2,-2,-1,-4,1,-1,-1,2,11918926362,-0.719238,0.191406,0.696289,11918926362,-0.4375,-1.5,-0.9375,11918926362,-0.0856323,0.386841,0.436157,0.807922,0.282427,0.77508,1.10591
11918942639,-4,-2,-1,1,-4,3,0,-2,11918926362,-0.719238,0.191406,0.696289,11918926362,-0.4375,-1.5,-0.9375,11918926362,-0.0856323,0.386841,0.436157,0.807922,0.282427,0.77508,1.10591
11918942639,-2,0,0,-1,8,2,-1,-2,11918926362,-0.719238,0.191406,0.696289,11918926362,-0.4375,-1.5,-0.9375,11918926362,-0.0856323,0.386841,0.436157,0.807922,0.282427,0.77508,1.10591
11918943420,-2,-1,-2,0,2,0,-2,0,11918926362,-0.719238,0.191406,0.696289,11918926362,-0.4375,-1.5,-0.9375,11918926362,-0.0856323,0.386841,0.436157,0.807922,0.282427,0.77508,1.10591
11918943420,0,-2,-2,-1,-3,-3,0,0,11918944228,-0.694336,0.196777,0.69873,11918944228,-0.375,-1.4375,0.0625,11918944228,-0.0855103,0.386475,0.436218,0.808044,0.282061,0.774249,1.10556
11918956973,1,1,-1,-3,-10,-4,-2,-2,11918944228,-0.694336,0.196777,0.69873,11918944228,-0.375,-1.4375,0.0625,11918944228,-0.0855103,0.386475,0.436218,0.808044,0.282061,0.774249,1.10556
11918956973,-1,0,0,0,10,-1,1,0,11918944228,-0.694336,0.196777,0.69873,11918944228,-0.375,-1.4375,0.0625,11918944228,-0.0855103,0.386475,0.436218,0.808044,0.282061,0.774249,1.10556
11918957741,0,-1,-1,-4,-16,1,-3,-2,11918944228,-0.694336,0.196777,0.69873,11918944228,-0.375,-1.4375,0.0625,11918944228,-0.0855103,0.386475,0.436218,0.808044,0.282061,0.774249,1.10556
11918957741,0,-1,0,0,-2,-3,-1,-1,11918963871,-0.712891,0.199707,0.707031,11918963871,-1.1875,-0.75,-1.0625,11918963871,-0.0856934,0.386169,0.436157,0.808167,0.281055,0.7739,1.10479
11918979500,-2,-1,-3,-2,1,0,0,1,11918963871,-0.712891,0.199707,0.707031,11918963871,-1.1875,-0.75,-1.0625,11918963871,-0.0856934,0.386169,0.436157,0.808167,0.281055,0.7739,1.10479
11918979500,-1,0,0,-1,-1,1,-1,0,11918963871,-0.712891,0.199707,0.707031,11918963871,-1.1875,-0.75,-1.0625,11918963871,-0.0856934,0.386169,0.436157,0.808167,0.281055,0.7739,1.10479
11918980229,-2,-2,-1,-6,7,0,0,1,11918963871,-0.712891,0.199707,0.707031,11918963871,-1.1875,-0.75,-1.0625,11918963871,-0.0856934,0.386169,0.436157,0.808167,0.281055,0.7739,1.10479
11918980229,0,-1,0,1,-4,0,0,-1,11918986427,-0.711426,0.194824,0.705566,11918986427,-0.25,-0.125,-0.25,11918986427,-0.0856934,0.386169,0.436157,0.808228,0.281041,0.773966,1.10482
11919002665,1,1,1,1,-6,-6,0,-2,11918986427,-0.711426,0.194824,0.705566,11918986427,-0.25,-0.125,-0.25,11918986427,-0.0856934,0.386169,0.436157,0.808228,0.281041,0.773966,1.10482
11919002665,-3,-3,-2,1,0,-1,0,-2,11918986427,-0.711426,0.194824,0.705566,11918986427,-0.25,-0.125,-0.25,11918986427,-0.0856934,0.386169,0.436157,0.808228,0.281041,0.773966,1.10482
11919003436,-1,-1,1,0,7,4,-1,0,11918986427,-0.711426,0.194824,0.705566,11918986427,-0.25,-0.125,-0.25,11918986427,-0.0856934,0.386169,0.436157,0.808228,0.281041,0.773966,1.10482
11919003436,-1,0,-1,-1,1,-3,0,-2,11919004275,-0.696289,0.19873,0.697754,11919004275,0.8125,0.5,0.3125,11919004275,-0.0856934,0.386169,0.436157,0.808228,0.281041,0.773966,1.10482
11919017036,-2,-4,0,-1,-1,-1,-1,-1,11919004275,-0.696289,0.19873,0.697754,11919004275,0.8125,0.5,0.3125,11919004275,-0.0856934,0.386169,0.436157,0.808228,0.281041,0.773966,1.10482
11919017036,0,1,0,-1,-9,-1,-1,0,11919004275,-0.696289,0.19873,0.697754,11919004275,0.8125,0.5,0.3125,11919004275,-0.0856934,0.386169,0.436157,0.808228,0.281041,0.773966,1.10482
11919017810,0,-1,0,-1,3,-1,-3,-1,11919004275,-0.696289,0.19873,0.697754,11919004275,0.8125,0.5,0.3125,11919004275,-0.0856934,0.386169,0.436157,0.808228,0.281041,0.773966,1.10482
11919017810,-1,-2,-1,-3,1,-1,-3,0,11919023859,-0.70752,0.20166,0.695312,11919023859,0.375,1.3125,0,11919023859,-0.0857544,0.386353,0.436157,0.808105,0.281269,0.774323,1.10506
11919039298,-1,0,-2,-1,-4,-3,-2,-2,11919023859,-0.70752,0.20166,0.695312,11919023859,0.375,1.3125,0,11919023859,-0.0857544,0.386353,0.436157,0.808105,0.281269,0.774323,1.10506
11919039298,0,-2,-1,-4,-1,2,-1,-1,11919023859,-0.70752,0.20166,0.695312,11919023859,0.375,1.3125,0,11919023859,-0.0857544,0.386353,0.436157,0.808105,0.281269,0.774323,1.10506
11919047009,-1,-2,0,1,1,-1,0,0,11919023859,-0.70752,0.20166,0.695312,11919023859,0.375,1.3125,0,11919023859,-0.0857544,0.386353,0.436157,0.808105,0.281269,0.774323,1.10506
11919047009,0,-1,-1,-1,2,-3,-1,0,11919047809,-0.733398,0.205078,0.695312,11919047809,-1.125,1.9375,0.6875,11919047809,-0.0860596,0.386719,0.436218,0.807861,0.281416,0.775274,1.10564
11919062675,0,-1,0,-3,-8,0,-2,0,11919047809,-0.733398,0.205078,0.695312,11919047809,-1.125,1.9375,0.6875,11919047809,-0.0860596,0.386719,0.436218,0.807861,0.281416,0.775274,1.10564
11919062675,-2,-2,-2,0,-2,-2,-4,-2,11919047809,-0.733398,0.205078,0.695312,11919047809,-1.125,1.9375,0.6875,11919047809,-0.0860596,0.386719,0.436218,0.807861,0.281416,0.775274,1.10564
11919063435,-1,0,-2,0,8,1,1,-2,11919047809,-0.733398,0.205078,0.695312,11919047809,-1.125,1.9375,0.6875,11919047809,-0.0860596,0.386719,0.436218,0.807861,0.281416,0.775274,1.10564
11919063435,-3,-1,0,0,5,2,0,-1,11919064277,-0.710449,0.199219,0.701172,11919064277,-1.5,1.8125,2.375,11919064277,-0.0862427,0.386841,0.436646,0.807556,0.281775,0.775546,1.10698
11919076980,-1,0,-3,-3,-14,-6,-4,-1,11919064277,-0.710449,0.199219,0.701172,11919064277,-1.5,1.8125,2.375,11919064277,-0.0862427,0.386841,0.436646,0.807556,0.281775,0.775546,1.10698
11919076980,3,0,0,0,-1,-1,0,1,11919064277,-0.710449,0.199219,0.701172,11919064277,-1.5,1.8125,2.375,11919064277,-0.0862427,0.386841,0.436646,0.807556,0.281775,0.775546,1.10698
11919077760,-1,-1,-2,-4,-5,-5,-2,-2,11919064277,-0.710449,0.199219,0.701172,11919064277,-1.5,1.8125,2.375,11919064277,-0.0862427,0.386841,0.436646,0.807556,0.281775,0.775546,1.10698
11919077760,1,-2,0,-1,9,3,0,-1,11919083914,-0.682617,0.191406,0.705566,11919083914,-0.875,1.25,2,11919083914,-0.0863037,0.386719,0.437012,0.807434,0.281843,0.775301,1.10783
11919099507,-1,-2,1,3,4,2,-2,0,11919083914,-0.682617,0.191406,0.705566,11919083914,-0.875,1.25,2,11919083914,-0.0863037,0.386719,0.437012,0.807434,0.281843,0.775301,1.10783
11919099507,-1,-2,-2,-2,1,0,-1,-2,11919083914,-0.682617,0.191406,0.705566,11919083914,-0.875,1.25,2,11919083914,-0.0863037,0.386719,0.437012,0.807434,0.281843,0.775301,1.10783
11919100231,-3,-1,-2,-1,-8,-6,-3,-2,11919083914,-0.682617,0.191406,0.705566,11919083914,-0.875,1.25,2,11919083914,-0.0863037,0.386719,0.437012,0.807434,0.281843,0.775301,1.10783
11919100231,-1,-1,-3,-2,-6,-1,-2,-1,11919106444,-0.716797,0.194824,0.702637,11919106444,1.0625,0.4375,-0.3125,11919106444,-0.0862427,0.38678,0.43689,0.807434,0.281949,0.775335,1.10758
11919122709,-1,-1,-2,-3,7,3,-1,0,11919106444,-0.716797,0.194824,0.702637,11919106444,1.0625,0.4375,-0.3125,11919106444,-0.0862427,0.38678,0.43689,0.807434,0.281949,0.775335,1.10758
11919122709,-1,-1,-2,-4,-1,-2,-1,-1,11919106444,-0.716797,0.194824,0.702637,11919106444,1.0625,0.4375,-0.3125,11919106444,-0.0862427,0.38678,0.43689,0.807434,0.281949,0.775335,1.10758
11919123481,0,-1,1,0,3,0,-1,-1,11919106444,-0.716797,0.194824,0.702637,11919106444,1.0625,0.4375,-0.3125,11919106444,-0.0862427,0.38678,0.43689,0.807434,0.281949,0.775335,1.10758
11919123481,-1,-2,-1,1,-2,0,-1,-2,11919124277,-0.726562,0.19873,0.693848,11919124277,3.25,0.4375,0.8125,11919124277,-0.0858765,0.387207,0.436707,0.807373,0.283279,0.775743,1.10792
11919136971,-2,-2,-1,0,-2,0,1,-2,11919124277,-0.726562,0.19873,0.693848,11919124277,3.25,0.4375,0.8125,11919124277,-0.0858765,0.387207,0.436707,0.807373,0.283279,0.775743,1.10792
11919136971,-3,1,0,1,2,-1,-3,0,11919124277,-0.726562,0.19873,0.693848,11919124277,3.25,0.4375,0.8125,11919124277,-0.0858765,0.387207,0.436707,0.807373,0.283279,0.775743,1.10792
11919137748,0,0,0,0,-7,-2,-2,-1,11919124277,-0.726562,0.19873,0.693848,11919124277,3.25,0.4375,0.8125,11919124277,-0.0858765,0.387207,0.436707,0.807373,0.283279,0.775743,1.10792
11919137748,-2,0,-2,-1,-1,0,-1,-2,11919143841,-0.708984,0.208496,0.688477,11919143841,3.1875,0.4375,1.4375,11919143841,-0.0853271,0.387634,0.436707,0.807251,0.285188,0.775905,1.10891
11919159516,1,-1,1,1,1,-2,-2,0,11919143841,-0.708984,0.208496,0.688477,11919143841,3.1875,0.4375,1.4375,11919143841,-0.0853271,0.387634,0.436707,0.807251,0.285188,0.775905,1.10891
11919159516,-1,0,1,0,-6,-3,-1,-1,11919143841,-0.708984,0.208496,0.688477,11919143841,3.1875,0.4375,1.4375,11919143841,-0.0853271,0.387634,0.436707,0.807251,0.285188,0.775905,1.10891
11919160328,1,-1,0,0,-2,-2,-1,-1,11919143841,-0.708984,0.208496,0.688477,11919143841,3.1875,0.4375,1.4375,11919143841,-0.0853271,0.387634,0.436707,0.807251,0.285188,0.775905,1.10891
11919160328,0,-1,-2,-1,4,0,-2,0,11919166346,-0.716797,0.212891,0.680176,11919166346,0.375,0.1875,0.4375,11919166346,-0.0853271,0.387634,0.436707,0.807251,0.285188,0.775905,1.10891
11919182654,-1,-1,-2,-1,-9,-2,-1,-1,11919166346,-0.716797,0.212891,0.680176,11919166346,0.375,0.1875,0.4375,11919166346,-0.0853271,0.387634,0.436707,0.807251,0.285188,0.775905,1.10891
11919182654,1,0,0,0,1,-1,1,0,11919166346,-0.716797,0.212891,0.680176,11919166346,0.375,0.1875,0.4375,11919166346,-0.0853271,0.387634,0.436707,0.807251,0.285188,0.775905,1.10891
11919183439,-3,-1,-1,-1,-1,-1,-1,0,11919166346,-0.716797,0.212891,0.680176,11919166346,0.375,0.1875,0.4375,11919166346,-0.0853271,0.387634,0.436707,0.807251,0.285188,0.775905,1.10891
11919183439,-1,-1,-2,-1,0,0,-1,-2,11919184272,-0.723145,0.20752,0.693359,11919184272,-1.1875,0,1.125,11919184272,-0.0854492,0.387695,0.436951,0.807068,0.285345,0.776052,1.10964
11919197038,-1,0,0,-2,-4,-8,-2,-2,11919184272,-0.723145,0.20752,0.693359,11919184272,-1.1875,0,1.125,11919184272,-0.0854492,0.387695,0.436951,0.807068,0.285345,0.776052,1.10964
11919197038,0,-1,0,-1,1,1,-1,-1,11919184272,-0.723145,0.20752,0.693359,11919184272,-1.1875,0,1.125,11919184272,-0.0854492,0.387695,0.436951,0.807068,0.285345,0.776052,1.10964
11919197788,-1,-2,0,-4,8,5,-2,-2,11919184272,-0.723145,0.20752,0.693359,11919184272,-1.1875,0,1.125,11919184272,-0.0854492,0.387695,0.436951,0.807068,0.285345,0.776052,1.10964
11919197788,-1,-1,0,3,-6,1,1,-1,11919203848,-0.714844,0.202148,0.681641,11919203848,-0.4375,-0.625,1.5625,11919203848,-0.0853882,0.387756,0.437134,0.806946,0.285797,0.776026,1.1103
11919219487,-2,1,-1,-3,-1,2,0,-1,11919203848,-0.714844,0.202148,0.681641,11919203848,-0.4375,-0.625,1.5625,11919203848,-0.0853882,0.387756,0.437134,0.806946,0.285797,0.776026,1.1103
11919219487,-3,-2,-4,-3,-9,-7,-1,0,11919203848,-0.714844,0.202148,0.681641,11919203848,-0.4375,-0.625,1.5625,11919203848,-0.0853882,0.387756,0.437134,0.806946,0.285797,0.776026,1.1103
11919220268,-1,1,-2,1,3,2,0,0,11919203848,-0.714844,0.202148,0.681641,11919203848,-0.4375,-0.625,1.5625,11919203848,-0.0853882,0.387756,0.437134,0.806946,0.285797,0.776026,1.1103
11919220268,2,0,0,0,12,-1,-2,0,11919226394,-0.712402,0.20166,0.698242,11919226394,1.1875,-1.125,0.875,11919226394,-0.085083,0.387634,0.437195,0.807007,0.286249,0.775457,1.11045
11919242723,0,-3,-2,-4,-22,-3,-1,0,11919226394,-0.712402,0.20166,0.698242,11919226394,1.1875,-1.125,0.875,11919226394,-0.085083,0.387634,0.437195,0.807007,0.286249,0.775457,1.11045
11919242723,0,-2,0,-1,-3,1,-1,0,11919226394,-0.712402,0.20166,0.698242,11919226394,1.1875,-1.125,0.875,11919226394,-0.085083,0.387634,0.437195,0.807007,0.286249,0.775457,1.11045
11919243448,0,-2,-2,-1,0,-3,-1,1,11919226394,-0.712402,0.20166,0.698242,11919226394,1.1875,-1.125,0.875,11919226394,-0.085083,0.387634,0.437195,0.807007,0.286249,0.775457,1.11045
11919243448,-2,0,-2,-1,-5,-1,0,0,11919244297,-0.710938,0.210449,0.693848,11919244297,1.75,-0.9375,0.625,11919244297,-0.0846558,0.387695,0.437195,0.807007,0.287227,0.775072,1.11077
11919257006,-1,3,0,2,21,4,-2,0,11919244297,-0.710938,0.210449,0.693848,11919244297,1.75,-0.9375,0.625,11919244297,-0.0846558,0.387695,0.437195,0.807007,0.287227,0.775072,1.11077
11919257006,0,-2,-1,-3,-1,1,-1,-2,11919244297,-0.710938,0.210449,0.693848,11919244297,1.75,-0.9375,0.625,11919244297,-0.0846558,0.387695,0.437195,0.807007,0.287227,0.775072,1.11077
11919257779,-2,-1,-2,-1,-8,-4,0,-1,11919244297,-0.710938,0.210449,0.693848,11919244297,1.75,-0.9375,0.625,11919244297,-0.0846558,0.387695,0.437195,0.807007,0.287227,0.775072,1.11077
11919257779,-1,-1,-1,-2,-4,-5,-2,-1,11919263893,-0.708496,0.203125,0.703125,11919263893,1.3125,-0.75,0.1875,11919263893,-0.0844116,0.387634,0.437195,0.807129,0.287587,0.774768,1.11084
11919279462,0,-1,-1,-3,4,0,1,-1,11919263893,-0.708496,0.203125,0.703125,11919263893,1.3125,-0.75,0.1875,11919263893,-0.0844116,0.387634,0.437195,0.807129,0.287587,0.774768,1.11084
11919279462,-2,-2,0,0,-4,-1,-2,-1,11919263893,-0.708496,0.203125,0.703125,11919263893,1.3125,-0.75,0.1875,11919263893,-0.0844116,0.387634,0.437195,0.807129,0.287587,0.774768,1.11084
11919280263,-1,-2,-1,1,2,-1,-3,-1,11919263893,-0.708496,0.203125,0.703125,11919263893,1.3125,-0.75,0.1875,11919263893,-0.0844116,0.387634,0.437195,0.807129,0.287587,0.774768,1.11084
11919280263,-1,0,-1,-6,-7,-6,-2,0,11919286423,-0.711914,0.20459,0.694336,11919286423,0.625,-0.75,0.25,11919286423,-0.0844116,0.387634,0.437195,0.807129,0.287587,0.774768,1.11084
11919302678,-3,-1,-3,-1,-1,-1,-1,-1,11919286423,-0.711914,0.20459,0.694336,11919286423,0.625,-0.75,0.25,11919286423,-0.0844116,0.387634,0.437195,0.807129,0.287587,0.774768,1.11084
11919302678,-2,2,-3,-3,13,2,0,-2,11919286423,-0.711914,0.20459,0.694336,11919286423,0.625,-0.75,0.25,11919286423,-0.0844116,0.387634,0.437195,0.807129,0.287587,0.774768,1.11084
11919303437,-1,-1,0,2,-13,-1,-1,-2,11919286423,-0.711914,0.20459,0.694336,11919286423,0.625,-0.75,0.25,11919286423,-0.0844116,0.387634,0.437195,0.807129,0.287587,0.774768,1.11084
11919303437,-2,0,-2,-4,-2,0,1,-2,11919304282,-0.71875,0.207031,0.68457,11919304282,1.1875,-0.75,-0.375,11919304282,-0.0842896,0.387756,0.437012,0.807129,0.287863,0.774851,1.11054
11919317043,-2,-3,-1,1,5,-2,0,-1,11919304282,-0.71875,0.207031,0.68457,11919304282,1.1875,-0.75,-0.375,11919304282,-0.0842896,0.387756,0.437012,0.807129,0.287863,0.774851,1.11054
11919317043,0,-3,0,2,-5,-3,-1,-2,11919304282,-0.71875,0.207031,0.68457,11919304282,1.1875,-0.75,-0.375,11919304282,-0.0842896,0.387756,0.437012,0.807129,0.287863,0.774851,1.11054
11919317813,-1,-1,-1,-2,2,2,0,-1,11919304282,-0.71875,0.207031,0.68457,11919304282,1.1875,-0.75,-0.375,11919304282,-0.0842896,0.387756,0.437012,0.807129,0.287863,0.774851,1.11054
11919317813,-1,0,-1,-2,-4,0,-1,0,11919323925,-0.718262,0.199219,0.700684,11919323925,2.75,-1.5,-2.25,11919323925,-0.0839844,0.387695,0.436523,0.807495,0.287783,0.774623,1.10921
11919347722,1,1,0,-2,-1,-1,-2,-1,11919323925,-0.718262,0.199219,0.700684,11919323925,2.75,-1.5,-2.25,11919323925,-0.0839844,0.387695,0.436523,0.807495,0.287783,0.774623,1.10921
11919347722,-2,-1,-3,0,1,1,0,0,11919323925,-0.718262,0.199219,0.700684,11919323925,2.75,-1.5,-2.25,11919323925,-0.0839844,0.387695,0.436523,0.807495,0.287783,0.774623,1.10921
11919348470,-2,-1,-2,0,0,-1,-2,-1,11919323925,-0.718262,0.199219,0.700684,11919323925,2.75,-1.5,-2.25,11919323925,-0.0839844,0.387695,0.436523,0.807495,0.287783,0.774623,1.10921
11919348470,-1,-2,-1,-2,-6,1,-1,-1,11919349275,-0.706543,0.233887,0.693359,11919349275,3.75,-3.375,0,11919349275,-0.0829468,0.387634,0.436401,0.807678,0.289615,0.773388,1.10931
11919362684,-1,-2,-3,0,8,2,-1,-1,11919349275,-0.706543,0.233887,0.693359,11919349275,3.75,-3.375,0,11919349275,-0.0829468,0.387634,0.436401,0.807678,0.289615,0.773388,1.10931
11919362684,-1,-2,-1,-4,-4,-4,0,1,11919349275,-0.706543,0.233887,0.693359,11919349275,3.75,-3.375,0,11919349275,-0.0829468,0.387634,0.436401,0.807678,0.289615,0.773388,1.10931
11919363483,-1,-2,-1,-1,5,-2,-1,1,11919349275,-0.706543,0.233887,0.693359,11919349275,3.75,-3.375,0,11919349275,-0.0829468,0.387634,0.436401,0.807678,0.289615,0.773388,1.10931
11919363483,-1,-3,0,-2,-6,2,-2,-1,11919364308,-0.704102,0.246582,0.692383,11919364308,2.375,-5.25,0.875,11919364308,-0.0817261,0.387268,0.436584,0.807861,0.291587,0.771315,1.10991
11919385127,-2,-1,-2,-1,-5,-2,-1,-1,11919364308,-0.704102,0.246582,0.692383,11919364308,2.375,-5.25,0.875,11919364308,-0.0817261,0.387268,0.436584,0.807861,0.291587,0.771315,1.10991
11919385127,0,-1,-2,-2,-1,2,-1,-2,11919364308,-0.704102,0.246582,0.692383,11919364308,2.375,-5.25,0.875,11919364308,-0.0817261,0.387268,0.436584,0.807861,0.291587,0.771315,1.10991
11919385921,0,1,2,-1,-1,-7,-1,0,11919364308,-0.704102,0.246582,0.692383,11919364308,2.375,-5.25,0.875,11919364308,-0.0817261,0.387268,0.436584,0.807861,0.291587,0.771315,1.10991
11919385921,-1,0,-1,1,16,3,-1,-2,11919386763,-0.719727,0.208496,0.674316,11919386763,-1.5,-4.8125,-1.25,11919386763,-0.0817871,0.386719,0.436523,0.808167,0.290352,0.770467,1.10885
11919399498,-1,0,-1,-2,-3,-1,1,0,11919386763,-0.719727,0.208496,0.674316,11919386763,-1.5,-4.8125,-1.25,11919386763,-0.0817871,0.386719,0.436523,0.808167,0.290352,0.770467,1.10885
11919399498,-2,-1,-1,2,-7,-3,-3,0,11919386763,-0.719727,0.208496,0.674316,11919386763,-1.5,-4.8125,-1.25,11919386763,-0.0817871,0.386719,0.436523,0.808167,0.290352,0.770467,1.10885
11919400274,-2,-1,-2,-1,14,-2,-1,-2,11919386763,-0.719727,0.208496,0.674316,11919386763,-1.5,-4.8125,-1.25,11919386763,-0.0817871,0.386719,0.436523,0.808167,0.290352,0.770467,1.10885
11919400274,-1,-1,-1,3,-12,-2,1,1,11919406394,-0.724121,0.193359,0.678711,11919406394,-1.5625,-3.6875,0.3125,11919406394,-0.0819092,0.386292,0.436584,0.808289,0.28938,0.769799,1.10827
11919422704,0,0,-1,1,-2,-2,0,-2,11919406394,-0.724121,0.193359,0.678711,11919406394,-1.5625,-3.6875,0.3125,11919406394,-0.0819092,0.386292,0.436584,0.808289,0.28938,0.769799,1.10827
11919422704,0,0,-2,-5,-1,-4,-1,-2,11919406394,-0.724121,0.193359,0.678711,11919406394,-1.5625,-3.6875,0.3125,11919406394,-0.0819092,0.386292,0.436584,0.808289,0.28938,0.769799,1.10827
11919423450,-1,-2,-1,-1,-4,1,-3,-2,11919406394,-0.724121,0.193359,0.678711,11919406394,-1.5625,-3.6875,0.3125,11919406394,-0.0819092,0.386292,0.436584,0.808289,0.28938,0.769799,1.10827
11919423450,-1,-1,-1,-2,3,0,-1,-1,11919424274,-0.718262,0.194824,0.690918,11919424274,-1.8125,-3.1875,-0.25,11919424274,-0.0821533,0.385803,0.436646,0.808472,0.28804,0.769207,1.10756
11919436996,1,-2,0,0,6,0,-2,-1,11919424274,-0.718262,0.194824,0.690918,11919424274,-1.8125,-3.1875,-0.25,11919424274,-0.0821533,0.385803,0.436646,0.808472,0.28804,0.769207,1.10756
11919436996,-1,-1,1,0,2,1,0,0,11919424274,-0.718262,0.194824,0.690918,11919424274,-1.8125,-3.1875,-0.25,11919424274,-0.0821533,0.385803,0.436646,0.808472,0.28804,0.769207,1.10756
11919437760,1,1,-1,-2,-16,-3,-1,1,11919424274,-0.718262,0.194824,0.690918,11919424274,-1.8125,-3.1875,-0.25,11919424274,-0.0821533,0.385803,0.436646,0.808472,0.28804,0.769207,1.10756
11919437760,-2,-1,-3,-3,-2,0,1,0,11919443880,-0.691406,0.193848,0.722656,11919443880,-3.125,-2.1875,0.25,11919443880,-0.0823975,0.384949,0.436951,0.808716,0.28629,0.767913,1.10699
11919459523,-1,-2,-1,-2,-3,-4,-4,-1,11919443880,-0.691406,0.193848,0.722656,11919443880,-3.125,-2.1875,0.25,11919443880,-0.0823975,0.384949,0.436951,0.808716,0.28629,0.767913,1.10699
11919459523,-1,0,0,-1,3,-1,-3,-1,11919443880,-0.691406,0.193848,0.722656,11919443880,-3.125,-2.1875,0.25,11919443880,-0.0823975,0.384949,0.436951,0.808716,0.28629,0.767913,1.10699
11919460287,0,-1,1,0,1,-1,2,-2,11919443880,-0.691406,0.193848,0.722656,11919443880,-3.125,-2.1875,0.25,11919443880,-0.0823975,0.384949,0.436951,0.808716,0.28629,0.767913,1.10699
11919460287,-1,-2,-1,1,4,0,0,-1,11919466413,-0.670898,0.186523,0.748047,11919466413,-3.75,-2.625,-0.4375,11919466413,-0.0827026,0.383606,0.437256,0.809143,0.28352,0.765793,1.10562
11919482682,-1,-1,0,-4,-14,1,0,-1,11919466413,-0.670898,0.186523,0.748047,11919466413,-3.75,-2.625,-0.4375,11919466413,-0.0827026,0.383606,0.437256,0.809143,0.28352,0.765793,1.10562
11919482682,-2,-2,-2,-3,-1,0,0,0,11919466413,-0.670898,0.186523,0.748047,11919466413,-3.75,-2.625,-0.4375,11919466413,-0.0827026,0.383606,0.437256,0.809143,0.28352,0.765793,1.10562
11919483448,0,-1,-3,-2,-3,-1,-2,0,11919466413,-0.670898,0.186523,0.748047,11919466413,-3.75,-2.625,-0.4375,11919466413,-0.0827026,0.383606,0.437256,0.809143,0.28352,0.765793,1.10562
11919483448,1,1,0,-1,9,-4,-1,0,11919484261,-0.665527,0.179199,0.748047,11919484261,-3.4375,-2.9375,0.25,11919484261,-0.0829468,0.382263,0.437683,0.809509,0.281022,0.763564,1.10465
11919496356,-2,0,-1,-1,-5,-2,-2,-2,11919484261,-0.665527,0.179199,0.748047,11919484261,-3.4375,-2.9375,0.25,11919484261,-0.0829468,0.382263,0.437683,0.809509,0.281022,0.763564,1.10465
11919496356,0,-1,2,1,-6,-4,-3,0,11919484261,-0.665527,0.179199,0.748047,11919484261,-3.4375,-2.9375,0.25,11919484261,-0.0829468,0.382263,0.437683,0.809509,0.281022,0.763564,1.10465
11919504494,0,-1,-1,-1,-1,1,0,0,11919484261,-0.665527,0.179199,0.748047,11919484261,-3.4375,-2.9375,0.25,11919484261,-0.0829468,0.382263,0.437683,0.809509,0.281022,0.763564,1.10465
11919504494,-2,0,-1,1,1,-1,-1,0,11919505292,-0.664551,0.188965,0.741699,11919505292,-2,-3.0625,2.5625,11919505292,-0.0827637,0.381104,0.438354,0.809753,0.279992,0.761157,1.10493
11919527708,-2,-2,-2,0,7,-3,-2,-1,11919505292,-0.664551,0.188965,0.741699,11919505292,-2,-3.0625,2.5625,11919505292,-0.0827637,0.381104,0.438354,0.809753,0.279992,0.761157,1.10493
11919527708,-1,-2,-2,0,-5,-2,-1,-3,11919505292,-0.664551,0.188965,0.741699,11919505292,-2,-3.0625,2.5625,11919505292,-0.0827637,0.381104,0.438354,0.809753,0.279992,0.761157,1.10493
11919528468,-1,-2,-2,-1,1,-1,0,-1,11919505292,-0.664551,0.188965,0.741699,11919505292,-2,-3.0625,2.5625,11919505292,-0.0827637,0.381104,0.438354,0.809753,0.279992,0.761157,1.10493
11919528468,-1,0,0,-1,-8,-3,1,-1,11919529324,-0.679688,0.191895,0.718262,11919529324,-0.625,-0.875,4.0625,11919529324,-0.0825195,0.380737,0.438965,0.80957,0.280504,0.759989,1.10623
11919550159,0,0,-2,-2,2,2,0,1,11919529324,-0.679688,0.191895,0.718262,11919529324,-0.625,-0.875,4.0625,11919529324,-0.0825195,0.380737,0.438965,0.80957,0.280504,0.759989,1.10623
11919550159,-1,1,-1,1,-2,-3,0,-2,11919529324,-0.679688,0.191895,0.718262,11919529324,-0.625,-0.875,4.0625,11919529324,-0.0825195,0.380737,0.438965,0.80957,0.280504,0.759989,1.10623
11919550921,-1,-1,-1,-1,8,2,0,-1,11919529324,-0.679688,0.191895,0.718262,11919529324,-0.625,-0.875,4.0625,11919529324,-0.0825195,0.380737,0.438965,0.80957,0.280504,0.759989,1.10623
11919550921,-1,-1,1,-2,-7,-1,-2,1,11919551772,-0.710449,0.17334,0.700195,11919551772,0.625,2.5,3.875,11919551772,-0.0827026,0.381165,0.439331,0.809204,0.281331,0.760864,1.10787
11919556376,-1,-1,1,-1,3,1,0,1,11919551772,-0.710449,0.17334,0.700195,11919551772,0.625,2.5,3.875,11919551772,-0.0827026,0.381165,0.439331,0.809204,0.281331,0.760864,1.10787
11919556376,0,-1,-1,0,15,3,1,-1,11919551772,-0.710449,0.17334,0.700195,11919551772,0.625,2.5,3.875,11919551772,-0.0827026,0.381165,0.439331,0.809204,0.281331,0.760864,1.10787
11919564529,-1,-2,-1,-1,-29,-8,-3,-3,11919551772,-0.710449,0.17334,0.700195,11919551772,0.625,2.5,3.875,11919551772,-0.0827026,0.381165,0.439331,0.809204,0.281331,0.760864,1.10787
11919564529,-1,-2,-2,0,4,3,-1,-1,11919565283,-0.741699,0.163086,0.682617,11919565283,2.4375,7.0625,5.1875,11919565283,-0.0831909,0.38269,0.439514,0.80835,0.283398,0.76401,1.11049
11919579530,-1,-1,-1,-3,-1,-2,0,0,11919565283,-0.741699,0.163086,0.682617,11919565283,2.4375,7.0625,5.1875,11919565283,-0.0831909,0.38269,0.439514,0.80835,0.283398,0.76401,1.11049
11919579530,-1,-1,-2,-2,5,0,0,-1,11919565283,-0.741699,0.163086,0.682617,11919565283,2.4375,7.0625,5.1875,11919565283,-0.0831909,0.38269,0.439514,0.80835,0.283398,0.76401,1.11049
11919580257,-2,1,-1,0,8,0,-1,-2,11919565283,-0.741699,0.163086,0.682617,11919565283,2.4375,7.0625,5.1875,11919565283,-0.0831909,0.38269,0.439514,0.80835,0.283398,0.76401,1.11049
11919580257,-1,-2,-1,0,-9,-1,-2,-2,11919586319,-0.743164,0.187012,0.674316,11919586319,2.75,9,8.0625,11919586319,-0.083374,0.384644,0.440125,0.807007,0.287406,0.767322,1.11515
11919603128,-2,-1,-3,-2,1,0,0,-2,11919586319,-0.743164,0.187012,0.674316,11919586319,2.75,9,8.0625,11919586319,-0.083374,0.384644,0.440125,0.807007,0.287406,0.767322,1.11515
11919603128,-1,-2,0,-4,-6,0,-3,-2,11919586319,-0.743164,0.187012,0.674316,11919586319,2.75,9,8.0625,11919586319,-0.083374,0.384644,0.440125,0.807007,0.287406,0.767322,1.11515
11919603879,-1,0,-1,-1,6,7,-1,1,11919586319,-0.743164,0.187012,0.674316,11919586319,2.75,9,8.0625,11919586319,-0.083374,0.384644,0.440125,0.807007,0.287406,0.767322,1.11515
11919603879,0,-1,-1,-3,-3,-2,-3,-1,11919604729,-0.721191,0.206543,0.680664,11919604729,-0.875,7.9375,11.1875,11919604729,-0.0834961,0.386108,0.441528,0.805542,0.291546,0.769512,1.12145
11919616346,0,1,1,0,2,-3,-2,-1,11919604729,-0.721191,0.206543,0.680664,11919604729,-0.875,7.9375,11.1875,11919604729,-0.0834961,0.386108,0.441528,0.805542,0.291546,0.769512,1.12145
11919616346,-1,-1,-3,-5,-17,-3,-2,0,11919604729,-0.721191,0.206543,0.680664,11919604729,-0.875,7.9375,11.1875,11919604729,-0.0834961,0.386108,0.441528,0.805542,0.291546,0.769512,1.12145
11919624558,0,-1,-1,-1,1,1,0,-1,11919604729,-0.721191,0.206543,0.680664,11919604729,-0.875,7.9375,11.1875,11919604729,-0.0834961,0.386108,0.441528,0.805542,0.291546,0.769512,1.12145
11919624558,0,-2,-4,0,4,-1,-1,-2,11919625440,-0.714355,0.211914,0.669434,11919625440,-3.5,4.75,15,11919625440,-0.0834351,0.386963,0.443726,0.803894,0.295841,0.770089,1.12919
11919639501,-1,-1,0,1,5,0,0,-1,11919625440,-0.714355,0.211914,0.669434,11919625440,-3.5,4.75,15,11919625440,-0.0834351,0.386963,0.443726,0.803894,0.295841,0.770089,1.12919
11919639501,-2,-1,1,0,-5,1,-1,0,11919625440,-0.714355,0.211914,0.669434,11919625440,-3.5,4.75,15,11919625440,-0.0834351,0.386963,0.443726,0.803894,0.295841,0.770089,1.12919
11919640246,0,0,0,-1,-3,-2,-3,-3,11919625440,-0.714355,0.211914,0.669434,11919625440,-3.5,4.75,15,11919625440,-0.0834351,0.386963,0.443726,0.803894,0.295841,0.770089,1.12919
11919640246,1,-1,-1,-2,3,-2,1,0,11919646444,-0.719727,0.210449,0.67041,11919646444,-3.1875,0.125,17.5625,11919646444,-0.0828247,0.387268,0.44635,0.802368,0.30066,0.768977,1.13762
11919662694,-1,-1,-2,-2,-6,-1,-1,-2,11919646444,-0.719727,0.210449,0.67041,11919646444,-3.1875,0.125,17.5625,11919646444,-0.0828247,0.387268,0.44635,0.802368,0.30066,0.768977,1.13762
11919662694,-1,-1,-1,-1,-1,-3,-1,1,11919646444,-0.719727,0.210449,0.67041,11919646444,-3.1875,0.125,17.5625,11919646444,-0.0828247,0.387268,0.44635,0.802368,0.30066,0.768977,1.13762
11919663445,-2,-2,-1,-1,1,-1,-1,0,11919646444,-0.719727,0.210449,0.67041,11919646444,-3.1875,0.125,17.5625,11919646444,-0.0828247,0.387268,0.44635,0.802368,0.30066,0.768977,1.13762
11919663445,-2,-2,-2,-3,-4,-1,-1,-2,11919664317,-0.729492,0.199219,0.661621,11919664317,-1.875,-6.5625,19.75,11919664317,-0.081665,0.386902,0.449097,0.801147,0.305385,0.766033,1.14559
11919676345,-2,0,-6,-9,-4,2,-1,-2,11919664317,-0.729492,0.199219,0.661621,11919664317,-1.875,-6.5625,19.75,11919664317,-0.081665,0.386902,0.449097,0.801147,0.305385,0.766033,1.14559
11919676345,1,2,7,7,-9,-4,-3,-2,11919664317,-0.729492,0.199219,0.661621,11919664317,-1.875,-6.5625,19.75,11919664317,-0.081665,0.386902,0.449097,0.801147,0.305385,0.766033,1.14559
11919684523,-2,-2,-2,-1,4,-3,0,0,11919664317,-0.729492,0.199219,0.661621,11919664317,-1.875,-6.5625,19.75,11919664317,-0.081665,0.386902,0.449097,0.801147,0.305385,0.766033,1.14559
11919684523,-2,-2,-2,-2,0,-5,-4,-1,11919685384,-0.722168,0.188477,0.663574,11919685384,-3.25,-14.5,22.6875,11919685384,-0.0799561,0.385193,0.452454,0.800293,0.309227,0.759953,1.15341
11919699505,-1,-2,-3,-5,-10,6,-1,-1,11919685384,-0.722168,0.188477,0.663574,11919685384,-3.25,-14.5,22.6875,11919685384,-0.0799561,0.385193,0.452454,0.800293,0.309227,0.759953,1.15341
11919699505,-1,-2,-6,-6,9,4,0,0,11919685384,-0.722168,0.188477,0.663574,11919685384,-3.25,-14.5,22.6875,11919685384,-0.0799561,0.385193,0.452454,0.800293,0.309227,0.759953,1.15341
11919700286,-2,-2,-3,-4,-7,-1,0,-2,11919685384,-0.722168,0.188477,0.663574,11919685384,-3.25,-14.5,22.6875,11919685384,-0.0799561,0.385193,0.452454,0.800293,0.309227,0.759953,1.15341
11919700286,4,3,5,6,14,1,0,-1,11919706385,-0.712891,0.21582,0.667969,11919706385,-6.3125,-21,26.6875,11919706385,-0.0776978,0.382507,0.456726,0.799377,0.313203,0.751189,1.16249
11919722662,-11,-8,-2,3,1,-4,-2,-2,11919706385,-0.712891,0.21582,0.667969,11919706385,-6.3125,-21,26.6875,11919706385,-0.0776978,0.382507,0.456726,0.799377,0.313203,0.751189,1.16249
11919722662,4,-10,-2,-5,-15,-5,-1,-3,11919706385,-0.712891,0.21582,0.667969,11919706385,-6.3125,-21,26.6875,11919706385,-0.0776978,0.382507,0.456726,0.799377,0.313203,0.751189,1.16249
11919723476,6,22,1,0,5,4,0,-1,11919706385,-0.712891,0.21582,0.667969,11919706385,-6.3125,-21,26.6875,11919706385,-0.0776978,0.382507,0.456726,0.799377,0.313203,0.751189,1.16249
11919723476,-1,-9,-5,-6,-6,-1,1,0,11919724284,-0.694824,0.243652,0.70459,11919724284,-12.125,-22.5625,27.6875,11919724284,-0.0756836,0.378967,0.46167,0.798401,0.315698,0.740988,1.17197
11919736351,8,14,2,2,7,-4,-3,0,11919724284,-0.694824,0.243652,0.70459,11919724284,-12.125,-22.5625,27.6875,11919724284,-0.0756836,0.378967,0.46167,0.798401,0.315698,0.740988,1.17197
11919736351,-6,-5,-3,0,2,3,-4,-1,11919724284,-0.694824,0.243652,0.70459,11919724284,-12.125,-22.5625,27.6875,11919724284,-0.0756836,0.378967,0.46167,0.798401,0.315698,0.740988,1.17197
11919744545,-7,-8,0,0,1,-3,-3,-1,11919724284,-0.694824,0.243652,0.70459,11919724284,-12.125,-22.5625,27.6875,11919724284,-0.0756836,0.378967,0.46167,0.798401,0.315698,0.740988,1.17197
11919744545,-1,-1,-2,-3,6,1,-1,-1,11919745412,-0.67627,0.241699,0.725586,11919745412,-13.0625,-22.5625,26.25,11919745412,-0.0738525,0.375061,0.466553,0.797607,0.316967,0.730464,1.1806
11919759480,-2,-4,6,11,-24,-3,1,1,11919745412,-0.67627,0.241699,0.725586,11919745412,-13.0625,-22.5625,26.25,11919745412,-0.0738525,0.375061,0.466553,0.797607,0.316967,0.730464,1.1806
11919759480,-3,-3,-4,-4,2,0,0,-1,11919745412,-0.67627,0.241699,0.725586,11919745412,-13.0625,-22.5625,26.25,11919745412,-0.0738525,0.375061,0.466553,0.797607,0.316967,0.730464,1.1806
11919760262,3,-5,-2,-4,7,-1,1,0,11919745412,-0.67627,0.241699,0.725586,11919745412,-13.0625,-22.5625,26.25,11919745412,-0.0738525,0.375061,0.466553,0.797607,0.316967,0.730464,1.1806
11919760262,-3,2,0,5,-15,1,-1,-1,11919766457,-0.652344,0.203613,0.757812,11919766457,-8.25,-20,25.9375,11919766457,-0.0718384,0.371399,0.470947,0.796875,0.318458,0.720261,1.18824
11919782706,2,-4,-3,-5,8,0,0,-1,11919766457,-0.652344,0.203613,0.757812,11919766457,-8.25,-20,25.9375,11919766457,-0.0718384,0.371399,0.470947,0.796875,0.318458,0.720261,1.18824
11919782706,3,8,3,5,1,-1,-2,0,11919766457,-0.652344,0.203613,0.757812,11919766457,-8.25,-20,25.9375,11919766457,-0.0718384,0.371399,0.470947,0.796875,0.318458,0.720261,1.18824
11919783478,-1,-4,-3,1,3,-2,-2,0,11919766457,-0.652344,0.203613,0.757812,11919766457,-8.25,-20,25.9375,11919766457,-0.0718384,0.371399,0.470947,0.796875,0.318458,0.720261,1.18824
11919783478,-4,-1,-1,-6,-7,-5,-2,-3,11919784306,-0.64209,0.238281,0.765137,11919784306,1.9375,-16.3125,21.75,11919784306,-0.0687256,0.36908,0.474121,0.796326,0.323191,0.711517,1.19492
11919805186,-1,0,0,-2,-1,-8,0,-1,11919784306,-0.64209,0.238281,0.765137,11919784306,1.9375,-16.3125,21.75,11919784306,-0.0687256,0.36908,0.474121,0.796326,0.323191,0.711517,1.19492
11919805186,0,3,1,0,7,6,0,0,11919784306,-0.64209,0.238281,0.765137,11919784306,1.9375,-16.3125,21.75,11919784306,-0.0687256,0.36908,0.474121,0.796326,0.323191,0.711517,1.19492
11919805978,-3,-3,-2,6,18,17,0,0,11919784306,-0.64209,0.238281,0.765137,11919784306,1.9375,-16.3125,21.75,11919784306,-0.0687256,0.36908,0.474121,0.796326,0.323191,0.711517,1.19492
11919805978,0,3,3,5,-12,-13,-4,0,11919806781,-0.622559,0.302734,0.770996,11919806781,4.75,-12.25,17,11919806781,-0.0651855,0.367676,0.476685,0.795776,0.329726,0.704065,1.2014
11919819542,4,2,0,-1,-12,-1,-1,0,11919806781,-0.622559,0.302734,0.770996,11919806781,4.75,-12.25,17,11919806781,-0.0651855,0.367676,0.476685,0.795776,0.329726,0.704065,1.2014
11919819542,-6,-1,-5,-1,3,-4,0,-1,11919806781,-0.622559,0.302734,0.770996,11919806781,4.75,-12.25,17,11919806781,-0.0651855,0.367676,0.476685,0.795776,0.329726,0.704065,1.2014
11919820265,-3,-4,-1,-2,-8,-5,-2,0,11919806781,-0.622559,0.302734,0.770996,11919806781,4.75,-12.25,17,11919806781,-0.0651855,0.367676,0.476685,0.795776,0.329726,0.704065,1.2014
11919820265,-1,-1,-3,-3,6,2,-2,-2,11919826445,-0.600586,0.335449,0.778809,11919826445,1.625,-4.875,14.6875,11919826445,-0.0625,0.367004,0.479126,0.7948,0.335875,0.698776,1.20825
11919842690,0,-1,1,-4,-5,3,1,-2,11919826445,-0.600586,0.335449,0.778809,11919826445,1.625,-4.875,14.6875,11919826445,-0.0625,0.367004,0.479126,0.7948,0.335875,0.698776,1.20825
11919842690,-2,-1,-2,-5,0,0,0,-1,11919826445,-0.600586,0.335449,0.778809,11919826445,1.625,-4.875,14.6875,11919826445,-0.0625,0.367004,0.479126,0.7948,0.335875,0.698776,1.20825
11919843477,0,-3,-3,-2,-1,0,0,-1,11919826445,-0.600586,0.335449,0.778809,11919826445,1.625,-4.875,14.6875,11919826445,-0.0625,0.367004,0.479126,0.7948,0.335875,0.698776,1.20825
11919843477,-1,0,-1,1,3,-1,0,-1,11919844454,-0.61377,0.320312,0.775879,11919844454,-3.75,1.9375,11.0625,11919844454,-0.0615845,0.36676,0.481262,0.793701,0.339222,0.696416,1.21422
11919865190,-3,0,-2,-2,3,-5,-2,-4,11919844454,-0.61377,0.320312,0.775879,11919844454,-3.75,1.9375,11.0625,11919844454,-0.0615845,0.36676,0.481262,0.793701,0.339222,0.696416,1.21422
11919865190,0,-1,-1,0,-3,-3,-1,0,11919844454,-0.61377,0.320312,0.775879,11919844454,-3.75,1.9375,11.0625,11919844454,-0.0615845,0.36676,0.481262,0.793701,0.339222,0.696416,1.21422
11919865957,1,-2,-2,-2,-5,4,0,1,11919844454,-0.61377,0.320312,0.775879,11919844454,-3.75,1.9375,11.0625,11919844454,-0.0615845,0.36676,0.481262,0.793701,0.339222,0.696416,1.21422
11919865957,-3,-2,1,-4,-2,1,0,1,11919866785,-0.621582,0.27832,0.768555,11919866785,-5.1875,7.375,7.5,11919866785,-0.0620728,0.367065,0.482788,0.792603,0.340422,0.696856,1.2188
11919879508,-1,-1,-2,1,1,2,-3,-1,11919866785,-0.621582,0.27832,0.768555,11919866785,-5.1875,7.375,7.5,11919866785,-0.0620728,0.367065,0.482788,0.792603,0.340422,0.696856,1.2188
11919879508,-2,0,0,0,-1,5,-2,-2,11919866785,-0.621582,0.27832,0.768555,11919866785,-5.1875,7.375,7.5,11919866785,-0.0620728,0.367065,0.482788,0.792603,0.340422,0.696856,1.2188
11919880294,2,2,0,1,-3,-2,0,-1,11919866785,-0.621582,0.27832,0.768555,11919866785,-5.1875,7.375,7.5,11919866785,-0.0620728,0.367065,0.482788,0.792603,0.340422,0.696856,1.2188
11919880294,-1,-2,-2,-1,10,-6,0,-1,11919886366,-0.638184,0.271973,0.75,11919886366,-0.625,10.8125,4.5625,11919886366,-0.062561,0.368347,0.483459,0.791565,0.342638,0.699236,1.2225
11919902687,-3,-3,-2,-3,-21,-6,-1,-1,11919886366,-0.638184,0.271973,0.75,11919886366,-0.625,10.8125,4.5625,11919886366,-0.062561,0.368347,0.483459,0.791565,0.342638,0.699236,1.2225
11919902687,-2,0,-1,2,16,-1,0,-1,11919886366,-0.638184,0.271973,0.75,11919886366,-0.625,10.8125,4.5625,11919886366,-0.062561,0.368347,0.483459,0.791565,0.342638,0.699236,1.2225
11919903471,-1,-1,-2,-1,-13,2,-1,-2,11919886366,-0.638184,0.271973,0.75,11919886366,-0.625,10.8125,4.5625,11919886366,-0.062561,0.368347,0.483459,0.791565,0.342638,0.699236,1.2225
11919903471,0,-2,-1,-3,-5,2,0,-1,11919904428,-0.647949,0.277832,0.734863,11919904428,1.3125,12.6875,1.9375,11919904428,-0.0631104,0.370239,0.483582,0.790588,0.345378,0.702924,1.22561
11919925248,1,1,-1,2,21,2,-2,0,11919904428,-0.647949,0.277832,0.734863,11919904428,1.3125,12.6875,1.9375,11919904428,-0.0631104,0.370239,0.483582,0.790588,0.345378,0.702924,1.22561
11919925248,-2,-2,0,-2,-7,-5,-3,-2,11919904428,-0.647949,0.277832,0.734863,11919904428,1.3125,12.6875,1.9375,11919904428,-0.0631104,0.370239,0.483582,0.790588,0.345378,0.702924,1.22561
11919926031,-1,-1,0,-2,-7,-14,-4,0,11919904428,-0.647949,0.277832,0.734863,11919904428,1.3125,12.6875,1.9375,11919904428,-0.0631104,0.370239,0.483582,0.790588,0.345378,0.702924,1.22561
11919926031,-1,0,-1,0,11,1,-1,-2,11919926799,-0.665039,0.285645,0.710938,11919926799,0.125,13.0625,-1,11919926799,-0.0640259,0.372253,0.483276,0.789734,0.347288,0.707383,1.22758
11919939534,-1,-1,-4,-5,-25,-1,3,0,11919926799,-0.665039,0.285645,0.710938,11919926799,0.125,13.0625,-1,11919926799,-0.0640259,0.372253,0.483276,0.789734,0.347288,0.707383,1.22758
11919939534,0,-1,-3,-2,6,0,1,0,11919926799,-0.665039,0.285645,0.710938,11919926799,0.125,13.0625,-1,11919926799,-0.0640259,0.372253,0.483276,0.789734,0.347288,0.707383,1.22758
11919940293,-1,-2,1,0,-1,0,1,-1,11919926799,-0.665039,0.285645,0.710938,11919926799,0.125,13.0625,-1,11919926799,-0.0640259,0.372253,0.483276,0.789734,0.347288,0.707383,1.22758
11919940293,0,0,-2,-1,-1,0,-1,0,11919946399,-0.67041,0.267578,0.710449,11919946399,-1.4375,12.0625,-0.375,11919946399,-0.0653076,0.373962,0.483154,0.788879,0.348146,0.71171,1.22949
11919962820,0,0,0,2,10,3,0,2,11919946399,-0.67041,0.267578,0.710449,11919946399,-1.4375,12.0625,-0.375,11919946399,-0.0653076,0.373962,0.483154,0.788879,0.348146,0.71171,1.22949
11919962820,-1,-1,-1,-2,-7,-4,-3,0,11919946399,-0.67041,0.267578,0.710449,11919946399,-1.4375,12.0625,-0.375,11919946399,-0.0653076,0.373962,0.483154,0.788879,0.348146,0.71171,1.22949
11919963571,-2,-4,0,-3,0,-2,-1,-2,11919946399,-0.67041,0.267578,0.710449,11919946399,-1.4375,12.0625,-0.375,11919946399,-0.0653076,0.373962,0.483154,0.788879,0.348146,0.71171,1.22949
11919963571,0,-2,-1,-1,-8,0,1,-2,11919964303,-0.681152,0.253906,0.706055,11919964303,-2.6875,10.25,0.75,11919964303,-0.0666504,0.375366,0.483276,0.788086,0.348554,0.71559,1.23162
11919985370,-4,-3,-2,-3,6,-5,-7,-5,11919964303,-0.681152,0.253906,0.706055,11919964303,-2.6875,10.25,0.75,11919964303,-0.0666504,0.375366,0.483276,0.788086,0.348554,0.71559,1.23162
11919985370,2,1,-4,-1,-7,-3,3,6,11919964303,-0.681152,0.253906,0.706055,11919964303,-2.6875,10.25,0.75,11919964303,-0.0666504,0.375366,0.483276,0.788086,0.348554,0.71559,1.23162
11919986138,-2,0,1,0,4,-8,-7,-5,11919964303,-0.681152,0.253906,0.706055,11919964303,-2.6875,10.25,0.75,11919964303,-0.0666504,0.375366,0.483276,0.788086,0.348554,0.71559,1.23162
11919986138,0,2,0,2,-2,3,2,3,11919986885,-0.686523,0.240723,0.709961,11919986885,-4.9375,9.375,-1.125,11919986885,-0.0684814,0.376343,0.483154,0.787476,0.347008,0.71935,1.23216
11919999643,0,-1,0,1,11,8,7,1,11919986885,-0.686523,0.240723,0.709961,11919986885,-4.9375,9.375,-1.125,11919986885,-0.0684814,0.376343,0.483154,0.787476,0.347008,0.71935,1.23216
11919999643,2,0,3,0,-4,0,-3,0,11919986885,-0.686523,0.240723,0.709961,11919986885,-4.9375,9.375,-1.125,11919986885,-0.0684814,0.376343,0.483154,0.787476,0.347008,0.71935,1.23216
11920000366,-4,-2,-6,-7,-8,-22,-8,-1,11919986885,-0.686523,0.240723,0.709961,11919986885,-4.9375,9.375,-1.125,11919986885,-0.0684814,0.376343,0.483154,0.787476,0.347008,0.71935,1.23216
11920000366,-3,-1,-5,1,2,24,-1,-4,11920006495,-0.687012,0.259277,0.702637,11920006495,-2.9375,6.75,2.5625,11920006495,-0.0693359,0.377258,0.483582,0.786743,0.347694,0.721711,1.23457
11920022883,-2,0,1,0,-4,-7,-6,-5,11920006495,-0.687012,0.259277,0.702637,11920006495,-2.9375,6.75,2.5625,11920006495,-0.0693359,0.377258,0.483582,0.786743,0.347694,0.721711,1.23457
11920022883,1,1,0,3,12,3,5,2,11920006495,-0.687012,0.259277,0.702637,11920006495,-2.9375,6.75,2.5625,11920006495,-0.0693359,0.377258,0.483582,0.786743,0.347694,0.721711,1.23457
11920023584,1,-1,0,-2,-6,0,5,0,11920006495,-0.687012,0.259277,0.702637,11920006495,-2.9375,6.75,2.5625,11920006495,-0.0693359,0.377258,0.483582,0.786743,0.347694,0.721711,1.23457
11920023584,-1,-2,-2,-3,2,-4,1,2,11920024336,-0.694824,0.230957,0.681152,11920024336,-1.9375,3.4375,1.5625,11920024336,-0.0702515,0.377869,0.483643,0.786316,0.347295,0.723753,1.2354
11920045404,-1,-1,-2,-2,4,0,9,7,11920024336,-0.694824,0.230957,0.681152,11920024336,-1.9375,3.4375,1.5625,11920024336,-0.0702515,0.377869,0.483643,0.786316,0.347295,0.723753,1.2354
11920045404,-3,0,3,2,-12,1,-5,-15,11920024336,-0.694824,0.230957,0.681152,11920024336,-1.9375,3.4375,1.5625,11920024336,-0.0702515,0.377869,0.483643,0.786316,0.347295,0.723753,1.2354
11920045997,0,0,-2,-2,2,4,-16,-7,11920024336,-0.694824,0.230957,0.681152,11920024336,-1.9375,3.4375,1.5625,11920024336,-0.0702515,0.377869,0.483643,0.786316,0.347295,0.723753,1.2354
11920045997,-3,-1,-1,-1,-7,-12,-8,3,11920046833,-0.686523,0.228027,0.705566,11920046833,-10.125,0.1875,-1.5625,11920046833,-0.0721436,0.377075,0.483948,0.786316,0.342584,0.724589,1.23427
11920059304,-1,-1,-1,-1,7,4,2,-10,11920046833,-0.686523,0.228027,0.705566,11920046833,-10.125,0.1875,-1.5625,11920046833,-0.0721436,0.377075,0.483948,0.786316,0.342584,0.724589,1.23427
11920059304,1,-1,-3,-3,-3,-4,-2,-1,11920046833,-0.686523,0.228027,0.705566,11920046833,-10.125,0.1875,-1.5625,11920046833,-0.0721436,0.377075,0.483948,0.786316,0.342584,0.724589,1.23427
11920067055,3,2,2,2,1,10,18,7,11920046833,-0.686523,0.228027,0.705566,11920046833,-10.125,0.1875,-1.5625,11920046833,-0.0721436,0.377075,0.483948,0.786316,0.342584,0.724589,1.23427
11920067055,-2,0,3,14,2,-8,0,-1,11920067831,-0.674805,0.243652,0.727539,11920067831,-4,0.75,2.1875,11920067831,-0.0726929,0.376709,0.484497,0.786072,0.34144,0.724391,1.23503
11920082729,-2,-3,-5,-4,13,0,-23,2,11920067831,-0.674805,0.243652,0.727539,11920067831,-4,0.75,2.1875,11920067831,-0.0726929,0.376709,0.484497,0.786072,0.34144,0.724391,1.23503
11920082729,-6,-3,-4,-4,-21,-5,6,-8,11920067831,-0.674805,0.243652,0.727539,11920067831,-4,0.75,2.1875,11920067831,-0.0726929,0.376709,0.484497,0.786072,0.34144,0.724391,1.23503
11920083483,0,1,0,-4,10,12,3,4,11920067831,-0.674805,0.243652,0.727539,11920067831,-4,0.75,2.1875,11920067831,-0.0726929,0.376709,0.484497,0.786072,0.34144,0.724391,1.23503
11920083483,2,0,-1,-4,-1,-4,6,3,11920084417,-0.67041,0.233398,0.708496,11920084417,-1.625,0.1875,4.625,11920084417,-0.0728149,0.376587,0.485168,0.785706,0.341687,0.724055,1.23671
11920105176,0,-2,0,0,-5,-8,7,8,11920084417,-0.67041,0.233398,0.708496,11920084417,-1.625,0.1875,4.625,11920084417,-0.0728149,0.376587,0.485168,0.785706,0.341687,0.724055,1.23671
11920105176,-1,-3,-2,0,26,-3,-11,-11,11920084417,-0.67041,0.233398,0.708496,11920084417,-1.625,0.1875,4.625,11920084417,-0.0728149,0.376587,0.485168,0.785706,0.341687,0.724055,1.23671
11920105949,0,0,-2,-7,-50,-6,-13,-4,11920084417,-0.67041,0.233398,0.708496,11920084417,-1.625,0.1875,4.625,11920084417,-0.0728149,0.376587,0.485168,0.785706,0.341687,0.724055,1.23671
11920105949,1,0,-1,-5,0,1,14,1,11920106778,-0.679688,0.243164,0.703613,11920106778,-3.875,-1.0625,5.375,11920106778,-0.0730591,0.376282,0.486084,0.785278,0.341603,0.723481,1.23876
11920119489,1,1,3,3,14,3,6,1,11920106778,-0.679688,0.243164,0.703613,11920106778,-3.875,-1.0625,5.375,11920106778,-0.0730591,0.376282,0.486084,0.785278,0.341603,0.723481,1.23876
11920119489,-1,1,-1,-2,-12,2,5,4,11920106778,-0.679688,0.243164,0.703613,11920106778,-3.875,-1.0625,5.375,11920106778,-0.0730591,0.376282,0.486084,0.785278,0.341603,0.723481,1.23876
11920120273,-1,-2,1,3,-3,-1,3,-2,11920106778,-0.679688,0.243164,0.703613,11920106778,-3.875,-1.0625,5.375,11920106778,-0.0730591,0.376282,0.486084,0.785278,0.341603,0.723481,1.23876
11920120273,1,-1,-2,-2,-3,2,10,2,11920126391,-0.672852,0.257812,0.711426,11920126391,-4.25,-2.4375,4.5,11920126391,-0.0731201,0.375732,0.487,0.784973,0.341372,0.722282,1.24048
11920142844,0,-1,-2,-4,-9,9,-10,10,11920126391,-0.672852,0.257812,0.711426,11920126391,-4.25,-2.4375,4.5,11920126391,-0.0731201,0.375732,0.487,0.784973,0.341372,0.722282,1.24048
11920142844,3,-1,-2,-1,13,-3,-25,-9,11920126391,-0.672852,0.257812,0.711426,11920126391,-4.25,-2.4375,4.5,11920126391,-0.0731201,0.375732,0.487,0.784973,0.341372,0.722282,1.24048
11920143582,-8,-4,-3,-1,10,-10,-2,-14,11920126391,-0.672852,0.257812,0.711426,11920126391,-4.25,-2.4375,4.5,11920126391,-0.0731201,0.375732,0.487,0.784973,0.341372,0.722282,1.24048
11920143582,-1,2,2,0,-4,5,-8,-9,11920144476,-0.668457,0.274414,0.728027,11920144476,-2.375,-2.4375,2.3125,11920144476,-0.072876,0.375244,0.48761,0.784851,0.341494,0.720941,1.24153
11920165249,-3,-6,-6,-7,-9,-9,12,-2,11920144476,-0.668457,0.274414,0.728027,11920144476,-2.375,-2.4375,2.3125,11920144476,-0.072876,0.375244,0.48761,0.784851,0.341494,0.720941,1.24153
11920165249,5,2,2,-1,-11,-4,20,37,11920144476,-0.668457,0.274414,0.728027,11920144476,-2.375,-2.4375,2.3125,11920144476,-0.072876,0.375244,0.48761,0.784851,0.341494,0.720941,1.24153
11920166097,-10,-3,-1,1,12,0,-44,-53,11920144476,-0.668457,0.274414,0.728027,11920144476,-2.375,-2.4375,2.3125,11920144476,-0.072876,0.375244,0.48761,0.784851,0.341494,0.720941,1.24153
11920166097,0,-2,0,-3,7,-2,-1,-2,11920166848,-0.678223,0.289551,0.707031,11920166848,-4.3125,-0.6875,1.9375,11920166848,-0.072998,0.375122,0.48822,0.784546,0.341669,0.720658,1.24305
11920179646,-1,-3,0,3,11,3,7,-10,11920166848,-0.678223,0.289551,0.707031,11920166848,-4.3125,-0.6875,1.9375,11920166848,-0.072998,0.375122,0.48822,0.784546,0.341669,0.720658,1.24305
11920179646,2,0,1,-2,-44,1,17,7,11920166848,-0.678223,0.289551,0.707031,11920166848,-4.3125,-0.6875,1.9375,11920166848,-0.072998,0.375122,0.48822,0.784546,0.341669,0.720658,1.24305
11920180408,5,0,0,0,4,-8,24,23,11920166848,-0.678223,0.289551,0.707031,11920166848,-4.3125,-0.6875,1.9375,11920166848,-0.072998,0.375122,0.48822,0.784546,0.341669,0.720658,1.24305
11920180408,-5,-5,-5,-4,6,-8,-28,-19,11920186646,-0.672852,0.276855,0.699219,11920186646,-10.3125,-1.375,3,11920186646,-0.0739136,0.37439,0.48938,0.784119,0.33977,0.720121,1.24487
11920202711,0,3,2,7,-5,-6,-13,-2,11920186646,-0.672852,0.276855,0.699219,11920186646,-10.3125,-1.375,3,11920186646,-0.0739136,0.37439,0.48938,0.784119,0.33977,0.720121,1.24487
