timestamp,emg1,emg2,emg3,emg4,emg5,emg6,emg7,emg8,timestamp_accelerometer,accelerometer-x,accelerometer-y,accelerometer-z,timestamp_gyro,gyro-x,gyro-y,gyro-z,timestamp_orientation,orientation-x,orientation-y,orientation-z,,orientation-w,roll,pitch,yaw
140734799966975,1,0,0,0,0,0,0,0,11940577388,-0.640625,0.310547,0.726074,11940577388,0.9375,-0.25,-0.1875,11940577388,-0.0515747,0.374634,0.516968,0.767883,0.407432,0.679848,1.33085
11940578262,-1,0,0,-1,-6,-1,-1,0,11940577388,-0.640625,0.310547,0.726074,11940577388,0.9375,-0.25,-0.1875,11940577388,-0.0515747,0.374634,0.516968,0.767883,0.407432,0.679848,1.33085
11940578262,-1,-2,-2,-1,5,-1,1,-3,11940577388,-0.640625,0.310547,0.726074,11940577388,0.9375,-0.25,-0.1875,11940577388,-0.0515747,0.374634,0.516968,0.767883,0.407432,0.679848,1.33085
11940579011,0,-1,0,1,7,0,-1,0,11940577388,-0.640625,0.310547,0.726074,11940577388,0.9375,-0.25,-0.1875,11940577388,-0.0515747,0.374634,0.516968,0.767883,0.407432,0.679848,1.33085
11940579011,-1,-1,-4,-4,-7,-4,-2,-2,11940577388,-0.640625,0.310547,0.726074,11940577388,0.9375,-0.25,-0.1875,11940577388,-0.0515747,0.374634,0.516968,0.767883,0.407432,0.679848,1.33085
11940580545,-2,-1,2,0,1,2,-1,0,11940577388,-0.640625,0.310547,0.726074,11940577388,0.9375,-0.25,-0.1875,11940577388,-0.0515747,0.374634,0.516968,0.767883,0.407432,0.679848,1.33085
11940580545,-1,0,0,-3,-5,1,0,0,11940577388,-0.640625,0.310547,0.726074,11940577388,0.9375,-0.25,-0.1875,11940577388,-0.0515747,0.374634,0.516968,0.767883,0.407432,0.679848,1.33085
11940581188,-1,-1,-2,-2,5,-1,-2,0,11940577388,-0.640625,0.310547,0.726074,11940577388,0.9375,-0.25,-0.1875,11940577388,-0.0515747,0.374634,0.516968,0.767883,0.407432,0.679848,1.33085
11940581188,-2,1,1,-1,3,2,0,-1,11940589014,-0.640137,0.315918,0.721191,11940589014,1.5625,0.1875,0.0625,11940589014,-0.0513306,0.374878,0.516907,0.767822,0.408287,0.679939,1.33115
11940590891,0,0,-2,-1,-7,-5,-2,-3,11940589014,-0.640137,0.315918,0.721191,11940589014,1.5625,0.1875,0.0625,11940589014,-0.0513306,0.374878,0.516907,0.767822,0.408287,0.679939,1.33115
11940590891,-1,-1,0,1,2,-1,-1,0,11940589014,-0.640137,0.315918,0.721191,11940589014,1.5625,0.1875,0.0625,11940589014,-0.0513306,0.374878,0.516907,0.767822,0.408287,0.679939,1.33115
11940594663,0,-1,-1,0,-3,0,1,-1,11940589014,-0.640137,0.315918,0.721191,11940589014,1.5625,0.1875,0.0625,11940589014,-0.0513306,0.374878,0.516907,0.767822,0.408287,0.679939,1.33115
11940594663,-1,-1,-2,-3,-5,-4,-2,0,11940603352,-0.635254,0.314941,0.72168,11940603352,0.1875,0.4375,0.0625,11940603352,-0.0513306,0.374878,0.516907,0.767822,0.408287,0.679939,1.33115
11940609525,-2,0,-4,-1,2,2,0,0,11940603352,-0.635254,0.314941,0.72168,11940603352,0.1875,0.4375,0.0625,11940603352,-0.0513306,0.374878,0.516907,0.767822,0.408287,0.679939,1.33115
11940609525,0,-2,-2,0,1,-1,-1,0,11940603352,-0.635254,0.314941,0.72168,11940603352,0.1875,0.4375,0.0625,11940603352,-0.0513306,0.374878,0.516907,0.767822,0.408287,0.679939,1.33115
11940618219,0,1,0,-1,-6,-3,0,-3,11940603352,-0.635254,0.314941,0.72168,11940603352,0.1875,0.4375,0.0625,11940603352,-0.0513306,0.374878,0.516907,0.767822,0.408287,0.679939,1.33115
11940618219,-2,-1,0,0,0,-1,-2,-3,11940625192,-0.634766,0.312988,0.729492,11940625192,-1.3125,0,0.25,11940625192,-0.0514526,0.374695,0.517029,0.767822,0.407823,0.679756,1.33116
11940625946,0,-3,-2,-4,1,0,0,-1,11940625192,-0.634766,0.312988,0.729492,11940625192,-1.3125,0,0.25,11940625192,-0.0514526,0.374695,0.517029,0.767822,0.407823,0.679756,1.33116
11940625946,-3,1,1,-2,-5,-4,0,-2,11940625192,-0.634766,0.312988,0.729492,11940625192,-1.3125,0,0.25,11940625192,-0.0514526,0.374695,0.517029,0.767822,0.407823,0.679756,1.33116
11940648795,-1,-2,-1,0,-2,-2,-3,1,11940625192,-0.634766,0.312988,0.729492,11940625192,-1.3125,0,0.25,11940625192,-0.0514526,0.374695,0.517029,0.767822,0.407823,0.679756,1.33116
11940648795,1,-2,-1,-2,-1,-1,1,-1,11940676850,-0.635254,0.307129,0.730957,11940676850,-0.1875,-0.125,-0.125,11940676850,-0.0515747,0.374451,0.517212,0.767822,0.407292,0.67946,1.33124
11940686956,0,0,-1,-2,-24,-3,-1,1,11940676850,-0.635254,0.307129,0.730957,11940676850,-0.1875,-0.125,-0.125,11940676850,-0.0515747,0.374451,0.517212,0.767822,0.407292,0.67946,1.33124
11940686956,-2,0,0,-1,0,-2,-2,-1,11940676850,-0.635254,0.307129,0.730957,11940676850,-0.1875,-0.125,-0.125,11940676850,-0.0515747,0.374451,0.517212,0.767822,0.407292,0.67946,1.33124
11940687726,-2,-3,-2,-3,-3,-1,-1,-1,11940676850,-0.635254,0.307129,0.730957,11940676850,-0.1875,-0.125,-0.125,11940676850,-0.0515747,0.374451,0.517212,0.767822,0.407292,0.67946,1.33124
11940687726,0,-2,-1,-1,2,0,1,-1,11940676850,-0.635254,0.307129,0.730957,11940676850,-0.1875,-0.125,-0.125,11940676850,-0.0515747,0.374451,0.517212,0.767822,0.407292,0.67946,1.33124
11940688502,1,0,0,0,10,2,-2,-2,11940676850,-0.635254,0.307129,0.730957,11940676850,-0.1875,-0.125,-0.125,11940676850,-0.0515747,0.374451,0.517212,0.767822,0.407292,0.67946,1.33124
11940688502,0,1,0,1,9,0,1,-2,11940689496,-0.643066,0.308594,0.725098,11940689496,1.0625,0.1875,-0.1875,11940689496,-0.0515137,0.374573,0.51709,0.767822,0.407531,0.679604,1.33111
11940691762,-2,1,-2,-1,-16,-2,-1,-1,11940689496,-0.643066,0.308594,0.725098,11940689496,1.0625,0.1875,-0.1875,11940689496,-0.0515137,0.374573,0.51709,0.767822,0.407531,0.679604,1.33111
11940691762,-2,-1,-2,-4,-1,-3,-1,-1,11940689496,-0.643066,0.308594,0.725098,11940689496,1.0625,0.1875,-0.1875,11940689496,-0.0515137,0.374573,0.51709,0.767822,0.407531,0.679604,1.33111
11940699424,-1,-1,-1,4,4,-1,-2,0,11940689496,-0.643066,0.308594,0.725098,11940689496,1.0625,0.1875,-0.1875,11940689496,-0.0515137,0.374573,0.51709,0.767822,0.407531,0.679604,1.33111
11940699424,-1,-3,-2,1,-4,-1,1,1,11940707651,-0.638184,0.312012,0.717285,11940707651,0.8125,0.1875,-0.0625,11940707651,-0.0515137,0.374573,0.51709,0.767822,0.407531,0.679604,1.33111
11940708298,-2,0,-2,-5,7,-1,-2,-2,11940707651,-0.638184,0.312012,0.717285,11940707651,0.8125,0.1875,-0.0625,11940707651,-0.0515137,0.374573,0.51709,0.767822,0.407531,0.679604,1.33111
11940708298,1,-1,0,3,-3,1,-2,1,11940707651,-0.638184,0.312012,0.717285,11940707651,0.8125,0.1875,-0.0625,11940707651,-0.0515137,0.374573,0.51709,0.767822,0.407531,0.679604,1.33111
11940714286,-1,-2,-1,-2,-5,-4,1,-1,11940707651,-0.638184,0.312012,0.717285,11940707651,0.8125,0.1875,-0.0625,11940707651,-0.0515137,0.374573,0.51709,0.767822,0.407531,0.679604,1.33111
11940714286,-1,-1,-3,-2,7,1,-2,0,11940721915,-0.638184,0.311035,0.723145,11940721915,-0.625,0.1875,0.125,11940721915,-0.0515137,0.374573,0.51709,0.767822,0.407531,0.679604,1.33111
11940729458,1,-2,-1,0,-2,-4,0,-1,11940721915,-0.638184,0.311035,0.723145,11940721915,-0.625,0.1875,0.125,11940721915,-0.0515137,0.374573,0.51709,0.767822,0.407531,0.679604,1.33111
11940729458,-2,-1,-1,1,7,4,0,-3,11940721915,-0.638184,0.311035,0.723145,11940721915,-0.625,0.1875,0.125,11940721915,-0.0515137,0.374573,0.51709,0.767822,0.407531,0.679604,1.33111
11940736978,-1,1,-1,0,-4,-3,-2,0,11940721915,-0.638184,0.311035,0.723145,11940721915,-0.625,0.1875,0.125,11940721915,-0.0515137,0.374573,0.51709,0.767822,0.407531,0.679604,1.33111
11940736978,-2,1,0,0,-6,-1,1,-2,11940744476,-0.637207,0.312988,0.724609,11940744476,-1.3125,-0.3125,0.25,11940744476,-0.0516357,0.374451,0.517212,0.767822,0.407188,0.679542,1.33123
11940752008,0,-2,1,-1,-2,-2,0,0,11940744476,-0.637207,0.312988,0.724609,11940744476,-1.3125,-0.3125,0.25,11940744476,-0.0516357,0.374451,0.517212,0.767822,0.407188,0.679542,1.33123
11940752008,-1,-3,-3,-3,-2,-2,-3,-3,11940744476,-0.637207,0.312988,0.724609,11940744476,-1.3125,-0.3125,0.25,11940744476,-0.0516357,0.374451,0.517212,0.767822,0.407188,0.679542,1.33123
11940759476,-2,-2,0,-1,7,2,-1,-1,11940744476,-0.637207,0.312988,0.724609,11940744476,-1.3125,-0.3125,0.25,11940744476,-0.0516357,0.374451,0.517212,0.767822,0.407188,0.679542,1.33123
11940759476,0,-2,-2,-3,-6,-5,-3,-1,11940767017,-0.636719,0.303223,0.724121,11940767017,-0.25,-0.3125,0.1875,11940767017,-0.0516968,0.374451,0.517212,0.767822,0.407084,0.679623,1.33122
11940775105,-1,-3,-4,-1,-3,5,-1,-2,11940767017,-0.636719,0.303223,0.724121,11940767017,-0.25,-0.3125,0.1875,11940767017,-0.0516968,0.374451,0.517212,0.767822,0.407084,0.679623,1.33122
11940775105,-3,-1,2,-2,2,-1,-3,-2,11940767017,-0.636719,0.303223,0.724121,11940767017,-0.25,-0.3125,0.1875,11940767017,-0.0516968,0.374451,0.517212,0.767822,0.407084,0.679623,1.33122
11940775818,-1,-1,-3,-3,-5,-2,-1,-1,11940767017,-0.636719,0.303223,0.724121,11940767017,-0.25,-0.3125,0.1875,11940767017,-0.0516968,0.374451,0.517212,0.767822,0.407084,0.679623,1.33122
11940775818,-1,0,1,-1,8,1,-3,-1,11940782005,-0.637207,0.310547,0.732422,11940782005,1.0625,-0.3125,0.0625,11940782005,-0.0515137,0.37439,0.517151,0.767883,0.407214,0.679309,1.33098
11940797538,0,0,-1,-1,-14,-5,-2,-1,11940782005,-0.637207,0.310547,0.732422,11940782005,1.0625,-0.3125,0.0625,11940782005,-0.0515137,0.37439,0.517151,0.767883,0.407214,0.679309,1.33098
11940797538,0,0,-3,-1,-1,-2,0,-1,11940782005,-0.637207,0.310547,0.732422,11940782005,1.0625,-0.3125,0.0625,11940782005,-0.0515137,0.37439,0.517151,0.767883,0.407214,0.679309,1.33098
11940798351,-1,-3,-2,-2,1,0,-2,-2,11940782005,-0.637207,0.310547,0.732422,11940782005,1.0625,-0.3125,0.0625,11940782005,-0.0515137,0.37439,0.517151,0.767883,0.407214,0.679309,1.33098
11940798351,0,0,-1,1,8,1,0,2,11940804483,-0.635742,0.314453,0.720703,11940804483,0.9375,-0.125,-0.0625,11940804483,-0.0515137,0.37439,0.517151,0.767883,0.407214,0.679309,1.33098
11940811931,-1,0,-3,0,-14,-3,-1,0,11940804483,-0.635742,0.314453,0.720703,11940804483,0.9375,-0.125,-0.0625,11940804483,-0.0515137,0.37439,0.517151,0.767883,0.407214,0.679309,1.33098
11940811931,-1,0,1,0,1,1,1,0,11940804483,-0.635742,0.314453,0.720703,11940804483,0.9375,-0.125,-0.0625,11940804483,-0.0515137,0.37439,0.517151,0.767883,0.407214,0.679309,1.33098
11940819395,-1,0,-1,-3,-1,-2,-2,-1,11940804483,-0.635742,0.314453,0.720703,11940804483,0.9375,-0.125,-0.0625,11940804483,-0.0515137,0.37439,0.517151,0.767883,0.407214,0.679309,1.33098
11940819395,1,-3,-2,0,0,-4,-2,-3,11940827053,-0.634277,0.3125,0.725586,11940827053,-0.25,0,0,11940827053,-0.0515137,0.37439,0.517151,0.767883,0.407214,0.679309,1.33098
11940835153,-2,-1,0,0,13,6,-2,-1,11940827053,-0.634277,0.3125,0.725586,11940827053,-0.25,0,0,11940827053,-0.0515137,0.37439,0.517151,0.767883,0.407214,0.679309,1.33098
11940835153,0,0,-1,-1,-12,-4,-2,0,11940827053,-0.634277,0.3125,0.725586,11940827053,-0.25,0,0,11940827053,-0.0515137,0.37439,0.517151,0.767883,0.407214,0.679309,1.33098
11940835733,0,1,0,-1,2,2,-1,-1,11940827053,-0.634277,0.3125,0.725586,11940827053,-0.25,0,0,11940827053,-0.0515137,0.37439,0.517151,0.767883,0.407214,0.679309,1.33098
11940835733,-1,-1,-2,-5,-9,-2,1,0,11940842016,-0.634277,0.313477,0.722656,11940842016,-0.75,-0.375,-0.125,11940842016,-0.0514526,0.37439,0.517151,0.767883,0.407318,0.679228,1.33099
11940857676,0,-1,1,5,2,-3,-2,-1,11940842016,-0.634277,0.313477,0.722656,11940842016,-0.75,-0.375,-0.125,11940842016,-0.0514526,0.37439,0.517151,0.767883,0.407318,0.679228,1.33099
11940857676,-2,-2,-1,-1,-6,-1,1,0,11940842016,-0.634277,0.313477,0.722656,11940842016,-0.75,-0.375,-0.125,11940842016,-0.0514526,0.37439,0.517151,0.767883,0.407318,0.679228,1.33099
11940858245,-2,-3,-1,-2,3,-1,0,-2,11940842016,-0.634277,0.313477,0.722656,11940842016,-0.75,-0.375,-0.125,11940842016,-0.0514526,0.37439,0.517151,0.767883,0.407318,0.679228,1.33099
11940858245,-1,-1,0,-1,-5,0,0,-2,11940864433,-0.643066,0.309082,0.722168,11940864433,0.25,-0.625,-0.25,11940864433,-0.0515137,0.37439,0.517151,0.767883,0.407214,0.679309,1.33098
11940871936,1,0,0,-1,11,1,-1,0,11940864433,-0.643066,0.309082,0.722168,11940864433,0.25,-0.625,-0.25,11940864433,-0.0515137,0.37439,0.517151,0.767883,0.407214,0.679309,1.33098
11940871936,0,0,-2,-2,4,-6,-1,0,11940864433,-0.643066,0.309082,0.722168,11940864433,0.25,-0.625,-0.25,11940864433,-0.0515137,0.37439,0.517151,0.767883,0.407214,0.679309,1.33098
11940879455,-1,-1,0,-1,-28,-3,0,-2,11940864433,-0.643066,0.309082,0.722168,11940864433,0.25,-0.625,-0.25,11940864433,-0.0515137,0.37439,0.517151,0.767883,0.407214,0.679309,1.33098
11940879455,-1,-3,1,0,-5,-1,-4,-1,11940887008,-0.641113,0.310059,0.716797,11940887008,1,-0.875,0.0625,11940887008,-0.0513306,0.374451,0.51709,0.767883,0.407594,0.679178,1.33095
11940895638,-1,-1,0,-1,9,3,-1,-1,11940887008,-0.641113,0.310059,0.716797,11940887008,1,-0.875,0.0625,11940887008,-0.0513306,0.374451,0.51709,0.767883,0.407594,0.679178,1.33095
11940895638,-1,-2,-3,-1,9,-2,-3,-2,11940887008,-0.641113,0.310059,0.716797,11940887008,1,-0.875,0.0625,11940887008,-0.0513306,0.374451,0.51709,0.767883,0.407594,0.679178,1.33095
11940902705,0,3,0,2,9,0,2,-1,11940887008,-0.641113,0.310059,0.716797,11940887008,1,-0.875,0.0625,11940887008,-0.0513306,0.374451,0.51709,0.767883,0.407594,0.679178,1.33095
11940902705,-2,0,-4,-4,-11,2,-1,-1,11940903376,-0.632812,0.324707,0.723633,11940903376,0,-1.25,0.1875,11940903376,-0.0510864,0.374329,0.517151,0.767944,0.407815,0.67868,1.33098
11940917926,-2,-1,0,-1,4,-4,1,-2,11940903376,-0.632812,0.324707,0.723633,11940903376,0,-1.25,0.1875,11940903376,-0.0510864,0.374329,0.517151,0.767944,0.407815,0.67868,1.33098
11940917926,0,0,1,-1,-5,-2,-1,-2,11940903376,-0.632812,0.324707,0.723633,11940903376,0,-1.25,0.1875,11940903376,-0.0510864,0.374329,0.517151,0.767944,0.407815,0.67868,1.33098
11940925100,0,-1,-3,-2,2,0,-2,-2,11940903376,-0.632812,0.324707,0.723633,11940903376,0,-1.25,0.1875,11940903376,-0.0510864,0.374329,0.517151,0.767944,0.407815,0.67868,1.33098
11940925100,0,0,-3,0,-1,-1,0,-1,11940925855,-0.628906,0.313965,0.730469,11940925855,-1.1875,-1.5625,0.1875,11940925855,-0.0510254,0.373962,0.517334,0.768005,0.407348,0.677959,1.3309
11940931996,-2,0,-1,3,-1,-4,0,-2,11940925855,-0.628906,0.313965,0.730469,11940925855,-1.1875,-1.5625,0.1875,11940925855,-0.0510254,0.373962,0.517334,0.768005,0.407348,0.677959,1.3309
11940931996,-2,-3,-1,-3,-8,-2,0,-1,11940925855,-0.628906,0.313965,0.730469,11940925855,-1.1875,-1.5625,0.1875,11940925855,-0.0510254,0.373962,0.517334,0.768005,0.407348,0.677959,1.3309
11940939448,-1,-2,0,-1,9,-1,-2,0,11940925855,-0.628906,0.313965,0.730469,11940925855,-1.1875,-1.5625,0.1875,11940925855,-0.0510254,0.373962,0.517334,0.768005,0.407348,0.677959,1.3309
11940939448,-2,-1,1,-1,-14,-2,1,-1,11940946873,-0.632324,0.307129,0.73291,11940946873,-0.8125,-1.5,-0.1875,11940946873,-0.0510254,0.373535,0.517395,0.768188,0.406534,0.6773,1.33036
11940954954,0,-1,-2,-4,-2,-1,-2,0,11940946873,-0.632324,0.307129,0.73291,11940946873,-0.8125,-1.5,-0.1875,11940946873,-0.0510254,0.373535,0.517395,0.768188,0.406534,0.6773,1.33036
11940954954,1,-1,-1,1,-5,-2,-1,-1,11940946873,-0.632324,0.307129,0.73291,11940946873,-0.8125,-1.5,-0.1875,11940946873,-0.0510254,0.373535,0.517395,0.768188,0.406534,0.6773,1.33036
11940955773,0,-2,-1,2,10,-1,-3,-3,11940946873,-0.632324,0.307129,0.73291,11940946873,-0.8125,-1.5,-0.1875,11940946873,-0.0510254,0.373535,0.517395,0.768188,0.406534,0.6773,1.33036
11940955773,-2,-2,-3,-1,5,3,-1,0,11940961773,-0.633789,0.301758,0.727051,11940961773,0.875,-0.9375,-0.4375,11940961773,-0.0510254,0.373535,0.517395,0.768188,0.406534,0.6773,1.33036
11940977424,-1,-1,0,0,-4,-5,-2,0,11940961773,-0.633789,0.301758,0.727051,11940961773,0.875,-0.9375,-0.4375,11940961773,-0.0510254,0.373535,0.517395,0.768188,0.406534,0.6773,1.33036
11940977424,-1,0,-2,0,-3,1,0,-2,11940961773,-0.633789,0.301758,0.727051,11940961773,0.875,-0.9375,-0.4375,11940961773,-0.0510254,0.373535,0.517395,0.768188,0.406534,0.6773,1.33036
11940978197,-1,-3,-3,-4,1,-2,2,0,11940961773,-0.633789,0.301758,0.727051,11940961773,0.875,-0.9375,-0.4375,11940961773,-0.0510254,0.373535,0.517395,0.768188,0.406534,0.6773,1.33036
11940978197,-1,-1,0,1,7,-1,0,-1,11940984319,-0.638184,0.30957,0.72998,11940984319,1.1875,0.125,-0.625,11940984319,-0.0509644,0.373657,0.517212,0.76825,0.406711,0.677494,1.33006
11940991818,-1,-1,-2,-5,-26,-2,-3,0,11940984319,-0.638184,0.30957,0.72998,11940984319,1.1875,0.125,-0.625,11940984319,-0.0509644,0.373657,0.517212,0.76825,0.406711,0.677494,1.33006
11940991818,-2,0,0,0,8,0,-1,0,11940984319,-0.638184,0.30957,0.72998,11940984319,1.1875,0.125,-0.625,11940984319,-0.0509644,0.373657,0.517212,0.76825,0.406711,0.677494,1.33006
11940999287,0,-1,-1,-2,-5,-1,-1,-1,11940984319,-0.638184,0.30957,0.72998,11940984319,1.1875,0.125,-0.625,11940984319,-0.0509644,0.373657,0.517212,0.76825,0.406711,0.677494,1.33006
11940999287,0,-1,-1,-3,8,-2,-2,-2,11941006815,-0.646973,0.30957,0.728516,11941006815,0.5625,1.4375,-0.6875,11941006815,-0.0511475,0.373901,0.517029,0.76825,0.40672,0.678195,1.32991
11941014935,-1,0,1,1,-5,1,0,-1,11941006815,-0.646973,0.30957,0.728516,11941006815,0.5625,1.4375,-0.6875,11941006815,-0.0511475,0.373901,0.517029,0.76825,0.40672,0.678195,1.32991
11941014935,-1,-1,0,-2,-1,-1,-2,0,11941006815,-0.646973,0.30957,0.728516,11941006815,0.5625,1.4375,-0.6875,11941006815,-0.0511475,0.373901,0.517029,0.76825,0.40672,0.678195,1.32991
11941015751,-1,2,-2,0,-3,-2,0,0,11941006815,-0.646973,0.30957,0.728516,11941006815,0.5625,1.4375,-0.6875,11941006815,-0.0511475,0.373901,0.517029,0.76825,0.40672,0.678195,1.32991
11941015751,-1,0,0,1,5,1,-1,-2,11941021825,-0.634277,0.30957,0.717773,11941021825,0.3125,2.125,0.1875,11941021825,-0.0512695,0.374268,0.517029,0.768066,0.407259,0.678904,1.33049
11941037447,-1,-2,-1,-2,6,-1,-1,2,11941021825,-0.634277,0.30957,0.717773,11941021825,0.3125,2.125,0.1875,11941021825,-0.0512695,0.374268,0.517029,0.768066,0.407259,0.678904,1.33049
11941037447,1,-1,1,1,-5,0,-2,-3,11941021825,-0.634277,0.30957,0.717773,11941021825,0.3125,2.125,0.1875,11941021825,-0.0512695,0.374268,0.517029,0.768066,0.407259,0.678904,1.33049
11941038196,-2,-4,-1,0,0,-3,-1,-1,11941021825,-0.634277,0.30957,0.717773,11941021825,0.3125,2.125,0.1875,11941021825,-0.0512695,0.374268,0.517029,0.768066,0.407259,0.678904,1.33049
11941038196,0,0,-2,-2,0,1,-2,-1,11941044255,-0.628906,0.309082,0.720703,11941044255,0.25,1.9375,0.1875,11941044255,-0.0513916,0.374512,0.517029,0.767944,0.407549,0.679431,1.33088
11941059953,-1,1,-3,-2,-1,-4,-1,-4,11941044255,-0.628906,0.309082,0.720703,11941044255,0.25,1.9375,0.1875,11941044255,-0.0513916,0.374512,0.517029,0.767944,0.407549,0.679431,1.33088
11941059953,-2,-1,0,-2,-1,-1,-1,-1,11941044255,-0.628906,0.309082,0.720703,11941044255,0.25,1.9375,0.1875,11941044255,-0.0513916,0.374512,0.517029,0.767944,0.407549,0.679431,1.33088
11941060698,-2,-2,-1,-2,1,0,0,-1,11941044255,-0.628906,0.309082,0.720703,11941044255,0.25,1.9375,0.1875,11941044255,-0.0513916,0.374512,0.517029,0.767944,0.407549,0.679431,1.33088
11941060698,0,0,1,1,-7,-3,-2,0,11941066953,-0.638184,0.306641,0.727051,11941066953,0,1.375,0.1875,11941066953,-0.0515137,0.374634,0.517029,0.767822,0.407598,0.679716,1.33104
11941074967,1,-2,-2,-1,9,2,-2,-1,11941066953,-0.638184,0.306641,0.727051,11941066953,0,1.375,0.1875,11941066953,-0.0515137,0.374634,0.517029,0.767822,0.407598,0.679716,1.33104
11941074967,-2,-2,-3,-2,3,-3,-1,0,11941066953,-0.638184,0.306641,0.727051,11941066953,0,1.375,0.1875,11941066953,-0.0515137,0.374634,0.517029,0.767822,0.407598,0.679716,1.33104
11941075822,-2,-1,-3,-6,-34,-4,-3,-2,11941066953,-0.638184,0.306641,0.727051,11941066953,0,1.375,0.1875,11941066953,-0.0515137,0.374634,0.517029,0.767822,0.407598,0.679716,1.33104
11941075822,1,0,-1,4,3,3,-2,0,11941081973,-0.644531,0.314453,0.722168,11941081973,0.75,1.0625,0.8125,11941081973,-0.0515137,0.374939,0.517029,0.7677,0.408219,0.680201,1.33156
11941097657,0,-2,-1,-1,5,0,0,-2,11941081973,-0.644531,0.314453,0.722168,11941081973,0.75,1.0625,0.8125,11941081973,-0.0515137,0.374939,0.517029,0.7677,0.408219,0.680201,1.33156
11941097657,0,1,-3,-1,10,0,-2,-1,11941081973,-0.644531,0.314453,0.722168,11941081973,0.75,1.0625,0.8125,11941081973,-0.0515137,0.374939,0.517029,0.7677,0.408219,0.680201,1.33156
11941098319,-1,-1,1,2,4,-1,0,-1,11941081973,-0.644531,0.314453,0.722168,11941081973,0.75,1.0625,0.8125,11941081973,-0.0515137,0.374939,0.517029,0.7677,0.408219,0.680201,1.33156
11941098319,-1,-3,-1,-2,-4,-3,-1,-1,11941104551,-0.633789,0.311523,0.720215,11941104551,1.5,0.75,1.3125,11941104551,-0.0512695,0.375183,0.517151,0.767517,0.409251,0.680198,1.33238
11941120088,0,0,0,0,6,2,-1,-1,11941104551,-0.633789,0.311523,0.720215,11941104551,1.5,0.75,1.3125,11941104551,-0.0512695,0.375183,0.517151,0.767517,0.409251,0.680198,1.33238
11941120088,1,-2,2,1,-5,-2,-1,1,11941104551,-0.633789,0.311523,0.720215,11941104551,1.5,0.75,1.3125,11941104551,-0.0512695,0.375183,0.517151,0.767517,0.409251,0.680198,1.33238
11941120793,-1,-1,-1,-4,1,-1,-2,-1,11941104551,-0.633789,0.311523,0.720215,11941104551,1.5,0.75,1.3125,11941104551,-0.0512695,0.375183,0.517151,0.767517,0.409251,0.680198,1.33238
11941120793,0,-1,-4,-5,-6,-6,-1,-3,11941127090,-0.634766,0.312988,0.721191,11941127090,1.375,0.8125,1,11941127090,-0.0510864,0.375366,0.517151,0.767395,0.409943,0.680198,1.33272
11941135006,-4,-1,-2,-2,8,2,1,-2,11941127090,-0.634766,0.312988,0.721191,11941127090,1.375,0.8125,1,11941127090,-0.0510864,0.375366,0.517151,0.767395,0.409943,0.680198,1.33272
11941135006,1,-1,-1,-3,-3,-4,-2,-1,11941127090,-0.634766,0.312988,0.721191,11941127090,1.375,0.8125,1,11941127090,-0.0510864,0.375366,0.517151,0.767395,0.409943,0.680198,1.33272
11941135762,0,1,2,3,9,0,-2,-1,11941127090,-0.634766,0.312988,0.721191,11941127090,1.375,0.8125,1,11941127090,-0.0510864,0.375366,0.517151,0.767395,0.409943,0.680198,1.33272
11941135762,-2,-1,-1,-4,-15,-2,-2,1,11941141824,-0.638672,0.315918,0.722168,11941141824,0.25,0.625,0.875,11941141824,-0.0510864,0.375366,0.517151,0.767395,0.409943,0.680198,1.33272
11941157677,-2,-1,-2,-2,12,0,-1,1,11941141824,-0.638672,0.315918,0.722168,11941141824,0.25,0.625,0.875,11941141824,-0.0510864,0.375366,0.517151,0.767395,0.409943,0.680198,1.33272
11941157677,-1,-1,1,4,-18,-3,0,-2,11941141824,-0.638672,0.315918,0.722168,11941141824,0.25,0.625,0.875,11941141824,-0.0510864,0.375366,0.517151,0.767395,0.409943,0.680198,1.33272
11941158381,-1,-2,-3,-1,8,0,-1,0,11941141824,-0.638672,0.315918,0.722168,11941141824,0.25,0.625,0.875,11941141824,-0.0510864,0.375366,0.517151,0.767395,0.409943,0.680198,1.33272
11941158381,-1,-1,-1,1,6,3,-1,-1,11941172036,-0.635742,0.316895,0.723145,11941172036,0,0.625,1.25,11941172036,-0.0510254,0.375488,0.517334,0.767212,0.410474,0.680205,1.33346
11941180145,-1,-3,-1,-3,-8,-3,-1,-3,11941172036,-0.635742,0.316895,0.723145,11941172036,0,0.625,1.25,11941172036,-0.0510254,0.375488,0.517334,0.767212,0.410474,0.680205,1.33346
11941180145,-2,-1,-2,-2,6,-1,-1,0,11941172036,-0.635742,0.316895,0.723145,11941172036,0,0.625,1.25,11941172036,-0.0510254,0.375488,0.517334,0.767212,0.410474,0.680205,1.33346
11941180783,-1,-1,-1,2,3,-1,-1,0,11941172036,-0.635742,0.316895,0.723145,11941172036,0,0.625,1.25,11941172036,-0.0510254,0.375488,0.517334,0.767212,0.410474,0.680205,1.33346
11941180783,-1,-1,-2,0,-4,-2,-1,-1,11941187039,-0.632812,0.31543,0.725586,11941187039,0.4375,0.75,0.5625,11941187039,-0.0510254,0.375488,0.517334,0.767212,0.410474,0.680205,1.33346
11941194452,-1,0,-1,0,-3,-2,-2,0,11941187039,-0.632812,0.31543,0.725586,11941187039,0.4375,0.75,0.5625,11941187039,-0.0510254,0.375488,0.517334,0.767212,0.410474,0.680205,1.33346
11941194452,-1,-1,-1,0,3,6,1,-1,11941187039,-0.632812,0.31543,0.725586,11941187039,0.4375,0.75,0.5625,11941187039,-0.0510254,0.375488,0.517334,0.767212,0.410474,0.680205,1.33346
11941202505,-1,-2,-2,-3,-7,-3,-1,-1,11941187039,-0.632812,0.31543,0.725586,11941187039,0.4375,0.75,0.5625,11941187039,-0.0510254,0.375488,0.517334,0.767212,0.410474,0.680205,1.33346
11941202505,-1,-2,0,-2,-1,-2,-2,-2,11941203341,-0.644043,0.314941,0.727051,11941203341,0.1875,0.625,0.125,11941203341,-0.0510254,0.375488,0.517334,0.767212,0.410474,0.680205,1.33346
11941217485,-1,0,-1,0,9,1,0,-1,11941203341,-0.644043,0.314941,0.727051,11941203341,0.1875,0.625,0.125,11941203341,-0.0510254,0.375488,0.517334,0.767212,0.410474,0.680205,1.33346
11941217485,-3,-2,-1,-3,-9,-5,0,-1,11941203341,-0.644043,0.314941,0.727051,11941203341,0.1875,0.625,0.125,11941203341,-0.0510254,0.375488,0.517334,0.767212,0.410474,0.680205,1.33346
11941218280,0,0,3,2,-2,3,-1,0,11941203341,-0.644043,0.314941,0.727051,11941203341,0.1875,0.625,0.125,11941203341,-0.0510254,0.375488,0.517334,0.767212,0.410474,0.680205,1.33346
11941218280,-2,-2,-3,0,5,-3,-1,-1,11941224555,-0.631836,0.306641,0.724121,11941224555,0.5,0.6875,0.8125,11941224555,-0.0510254,0.375427,0.517334,0.767273,0.410345,0.680144,1.33337
11941240105,-2,0,0,-2,-12,-4,-2,-1,11941224555,-0.631836,0.306641,0.724121,11941224555,0.5,0.6875,0.8125,11941224555,-0.0510254,0.375427,0.517334,0.767273,0.410345,0.680144,1.33337
11941240105,-1,0,-3,-3,6,3,0,1,11941224555,-0.631836,0.306641,0.724121,11941224555,0.5,0.6875,0.8125,11941224555,-0.0510254,0.375427,0.517334,0.767273,0.410345,0.680144,1.33337
11941240734,-1,-1,-2,-5,2,-2,-2,0,11941224555,-0.631836,0.306641,0.724121,11941224555,0.5,0.6875,0.8125,11941224555,-0.0510254,0.375427,0.517334,0.767273,0.410345,0.680144,1.33337
11941240734,-2,-2,0,-1,-2,-1,0,-1,11941246944,-0.631348,0.306152,0.728027,11941246944,0.1875,0.625,-0.125,11941246944,-0.0510254,0.375427,0.517395,0.767273,0.410399,0.680152,1.33355
11941254271,-2,-2,-1,-1,10,-2,-2,-2,11941246944,-0.631348,0.306152,0.728027,11941246944,0.1875,0.625,-0.125,11941246944,-0.0510254,0.375427,0.517395,0.767273,0.410399,0.680152,1.33355
11941254271,-1,0,-1,-1,-13,-1,0,-2,11941246944,-0.631348,0.306152,0.728027,11941246944,0.1875,0.625,-0.125,11941246944,-0.0510254,0.375427,0.517395,0.767273,0.410399,0.680152,1.33355
11941262522,1,0,0,-1,2,-1,1,-1,11941246944,-0.631348,0.306152,0.728027,11941246944,0.1875,0.625,-0.125,11941246944,-0.0510254,0.375427,0.517395,0.767273,0.410399,0.680152,1.33355
11941262522,0,-2,1,-1,4,-2,-1,-1,11941263304,-0.65625,0.313965,0.718262,11941263304,0.9375,0.5,-0.25,11941263304,-0.0510864,0.375427,0.517334,0.767273,0.410241,0.680225,1.33335
11941277466,1,-2,-3,-1,-19,0,0,0,11941263304,-0.65625,0.313965,0.718262,11941263304,0.9375,0.5,-0.25,11941263304,-0.0510864,0.375427,0.517334,0.767273,0.410241,0.680225,1.33335
11941277466,-1,-3,-2,-1,11,0,-3,0,11941263304,-0.65625,0.313965,0.718262,11941263304,0.9375,0.5,-0.25,11941263304,-0.0510864,0.375427,0.517334,0.767273,0.410241,0.680225,1.33335
11941278212,-1,0,-1,-2,-5,-3,-1,1,11941263304,-0.65625,0.313965,0.718262,11941263304,0.9375,0.5,-0.25,11941263304,-0.0510864,0.375427,0.517334,0.767273,0.410241,0.680225,1.33335
11941278212,-2,1,0,0,4,-2,1,0,11941284368,-0.63916,0.315918,0.715332,11941284368,1.0625,0.9375,0.875,11941284368,-0.0509644,0.375732,0.517395,0.76709,0.411133,0.680496,1.33407
11941299932,2,-1,-1,-1,0,1,1,-2,11941284368,-0.63916,0.315918,0.715332,11941284368,1.0625,0.9375,0.875,11941284368,-0.0509644,0.375732,0.517395,0.76709,0.411133,0.680496,1.33407
11941299932,1,-2,-3,-1,-5,-3,-1,-1,11941284368,-0.63916,0.315918,0.715332,11941284368,1.0625,0.9375,0.875,11941284368,-0.0509644,0.375732,0.517395,0.76709,0.411133,0.680496,1.33407
11941300675,0,0,0,3,5,3,1,-1,11941284368,-0.63916,0.315918,0.715332,11941284368,1.0625,0.9375,0.875,11941284368,-0.0509644,0.375732,0.517395,0.76709,0.411133,0.680496,1.33407
11941300675,2,1,0,1,-4,-2,-1,-2,11941306848,-0.623535,0.313965,0.719727,11941306848,0,0.6875,0.625,11941306848,-0.0509033,0.375732,0.517395,0.76709,0.411237,0.680414,1.33409
11941314306,-2,0,0,-2,-6,-2,-2,0,11941306848,-0.623535,0.313965,0.719727,11941306848,0,0.6875,0.625,11941306848,-0.0509033,0.375732,0.517395,0.76709,0.411237,0.680414,1.33409
11941314306,-1,0,-1,-2,-1,-2,-2,-1,11941306848,-0.623535,0.313965,0.719727,11941306848,0,0.6875,0.625,11941306848,-0.0509033,0.375732,0.517395,0.76709,0.411237,0.680414,1.33409
11941322894,-1,-4,-2,-2,0,-2,-2,-3,11941306848,-0.623535,0.313965,0.719727,11941306848,0,0.6875,0.625,11941306848,-0.0509033,0.375732,0.517395,0.76709,0.411237,0.680414,1.33409
11941322894,-1,-1,-1,-3,-1,1,1,-1,11941329488,-0.647949,0.316406,0.728516,11941329488,-0.875,0.3125,0.0625,11941329488,-0.0509033,0.375732,0.517395,0.76709,0.411237,0.680414,1.33409
11941337670,0,-3,0,-1,6,-1,-1,-1,11941329488,-0.647949,0.316406,0.728516,11941329488,-0.875,0.3125,0.0625,11941329488,-0.0509033,0.375732,0.517395,0.76709,0.411237,0.680414,1.33409
11941337670,-1,1,1,2,-13,-5,-4,-2,11941329488,-0.647949,0.316406,0.728516,11941329488,-0.875,0.3125,0.0625,11941329488,-0.0509033,0.375732,0.517395,0.76709,0.411237,0.680414,1.33409
11941338331,-1,0,-3,0,8,-1,-1,0,11941329488,-0.647949,0.316406,0.728516,11941329488,-0.875,0.3125,0.0625,11941329488,-0.0509033,0.375732,0.517395,0.76709,0.411237,0.680414,1.33409
11941338331,-1,1,-2,-5,-2,1,-3,0,11941344589,-0.632812,0.317383,0.723633,11941344589,-0.4375,0.4375,1.75,11941344589,-0.0508423,0.375732,0.517639,0.766907,0.411579,0.680188,1.33479
11941360123,-2,0,0,-1,-3,0,-1,1,11941344589,-0.632812,0.317383,0.723633,11941344589,-0.4375,0.4375,1.75,11941344589,-0.0508423,0.375732,0.517639,0.766907,0.411579,0.680188,1.33479
11941360123,-2,-1,-2,-2,4,2,1,-1,11941344589,-0.632812,0.317383,0.723633,11941344589,-0.4375,0.4375,1.75,11941344589,-0.0508423,0.375732,0.517639,0.766907,0.411579,0.680188,1.33479
11941360822,-2,-1,0,-1,-1,-3,-2,1,11941344589,-0.632812,0.317383,0.723633,11941344589,-0.4375,0.4375,1.75,11941344589,-0.0508423,0.375732,0.517639,0.766907,0.411579,0.680188,1.33479
11941360822,-1,-1,-1,0,1,1,-3,-2,11941366903,-0.614258,0.309082,0.728516,11941366903,-0.25,0.375,0.5625,11941366903,-0.0508423,0.375671,0.5177,0.766907,0.411512,0.680076,1.33486
11941374513,-2,-2,0,0,3,1,1,-1,11941366903,-0.614258,0.309082,0.728516,11941366903,-0.25,0.375,0.5625,11941366903,-0.0508423,0.375671,0.5177,0.766907,0.411512,0.680076,1.33486
11941374513,-1,-1,0,-1,-16,-1,-1,-1,11941366903,-0.614258,0.309082,0.728516,11941366903,-0.25,0.375,0.5625,11941366903,-0.0508423,0.375671,0.5177,0.766907,0.411512,0.680076,1.33486
11941382716,-2,-1,-1,-3,0,0,-2,-2,11941366903,-0.614258,0.309082,0.728516,11941366903,-0.25,0.375,0.5625,11941366903,-0.0508423,0.375671,0.5177,0.766907,0.411512,0.680076,1.33486
11941382716,-1,-2,0,-1,2,-1,1,1,11941383408,-0.647461,0.318359,0.724121,11941383408,0.375,0.625,-1.1875,11941383408,-0.0509033,0.375854,0.517456,0.766968,0.411549,0.680545,1.33446
11941397622,-3,1,-2,-1,1,-4,-2,-1,11941383408,-0.647461,0.318359,0.724121,11941383408,0.375,0.625,-1.1875,11941383408,-0.0509033,0.375854,0.517456,0.766968,0.411549,0.680545,1.33446
11941397622,0,-1,-1,0,3,-3,1,-1,11941383408,-0.647461,0.318359,0.724121,11941383408,0.375,0.625,-1.1875,11941383408,-0.0509033,0.375854,0.517456,0.766968,0.411549,0.680545,1.33446
11941398296,0,-1,0,-2,-4,1,-1,0,11941383408,-0.647461,0.318359,0.724121,11941383408,0.375,0.625,-1.1875,11941383408,-0.0509033,0.375854,0.517456,0.766968,0.411549,0.680545,1.33446
11941398296,-2,-2,-3,-1,-3,-2,-1,-3,11941404492,-0.646484,0.3125,0.723633,11941404492,1.1875,0.8125,0.3125,11941404492,-0.0509033,0.376099,0.517395,0.766907,0.41199,0.68096,1.33471
11941420108,-1,1,1,2,3,-3,0,-1,11941404492,-0.646484,0.3125,0.723633,11941404492,1.1875,0.8125,0.3125,11941404492,-0.0509033,0.376099,0.517395,0.766907,0.41199,0.68096,1.33471
11941420108,0,0,-2,-3,-17,2,0,0,11941404492,-0.646484,0.3125,0.723633,11941404492,1.1875,0.8125,0.3125,11941404492,-0.0509033,0.376099,0.517395,0.766907,0.41199,0.68096,1.33471
11941420738,-2,-3,-2,-3,0,-4,0,-1,11941404492,-0.646484,0.3125,0.723633,11941404492,1.1875,0.8125,0.3125,11941404492,-0.0509033,0.376099,0.517395,0.766907,0.41199,0.68096,1.33471
11941420738,-2,-2,1,-1,0,-1,-2,0,11941427072,-0.622559,0.311035,0.713867,11941427072,0.125,1.125,0.625,11941427072,-0.0509033,0.376221,0.517517,0.766785,0.412356,0.681099,1.33527
11941434464,3,-1,-3,-2,-1,-1,-1,-1,11941427072,-0.622559,0.311035,0.713867,11941427072,0.125,1.125,0.625,11941427072,-0.0509033,0.376221,0.517517,0.766785,0.412356,0.681099,1.33527
11941434464,-1,-1,0,-3,7,1,-1,-1,11941427072,-0.622559,0.311035,0.713867,11941427072,0.125,1.125,0.625,11941427072,-0.0509033,0.376221,0.517517,0.766785,0.412356,0.681099,1.33527
11941442549,-1,-1,-1,0,-1,-1,0,-1,11941427072,-0.622559,0.311035,0.713867,11941427072,0.125,1.125,0.625,11941427072,-0.0509033,0.376221,0.517517,0.766785,0.412356,0.681099,1.33527
11941442549,-1,-1,0,0,-6,-1,0,-1,11941443411,-0.638184,0.313477,0.728027,11941443411,-1.1875,0.875,-0.625,11941443411,-0.0511475,0.37616,0.517517,0.766785,0.411818,0.681304,1.3351
11941457660,-1,-3,-1,-1,-5,-3,-1,-2,11941443411,-0.638184,0.313477,0.728027,11941443411,-1.1875,0.875,-0.625,11941443411,-0.0511475,0.37616,0.517517,0.766785,0.411818,0.681304,1.3351
11941457660,1,-2,1,1,6,-2,0,-1,11941443411,-0.638184,0.313477,0.728027,11941443411,-1.1875,0.875,-0.625,11941443411,-0.0511475,0.37616,0.517517,0.766785,0.411818,0.681304,1.3351
11941458230,0,1,-2,1,-3,2,0,-3,11941443411,-0.638184,0.313477,0.728027,11941443411,-1.1875,0.875,-0.625,11941443411,-0.0511475,0.37616,0.517517,0.766785,0.411818,0.681304,1.3351
11941458230,-1,0,-2,0,10,-2,-1,-1,11941464542,-0.653809,0.310547,0.726562,11941464542,-0.25,0.625,0.3125,11941464542,-0.0512085,0.37616,0.517517,0.766785,0.411714,0.681385,1.33509
11941480162,-1,0,-1,-4,-23,0,-3,0,11941464542,-0.653809,0.310547,0.726562,11941464542,-0.25,0.625,0.3125,11941464542,-0.0512085,0.37616,0.517517,0.766785,0.411714,0.681385,1.33509
11941480162,-2,-1,-1,-1,2,-2,-1,-2,11941464542,-0.653809,0.310547,0.726562,11941464542,-0.25,0.625,0.3125,11941464542,-0.0512085,0.37616,0.517517,0.766785,0.411714,0.681385,1.33509
11941480723,-1,-1,-3,0,-1,-1,0,0,11941464542,-0.653809,0.310547,0.726562,11941464542,-0.25,0.625,0.3125,11941464542,-0.0512085,0.37616,0.517517,0.766785,0.411714,0.681385,1.33509
11941480723,1,1,1,-4,-5,-3,-4,-1,11941486946,-0.635254,0.30957,0.716309,11941486946,1.6875,0.5,1.1875,11941486946,-0.0509644,0.376404,0.517517,0.766663,0.412633,0.681424,1.33556
11941494312,-1,0,-1,-1,5,-1,-2,-1,11941486946,-0.635254,0.30957,0.716309,11941486946,1.6875,0.5,1.1875,11941486946,-0.0509644,0.376404,0.517517,0.766663,0.412633,0.681424,1.33556
11941494312,0,-2,-1,0,7,-2,-1,-1,11941486946,-0.635254,0.30957,0.716309,11941486946,1.6875,0.5,1.1875,11941486946,-0.0509644,0.376404,0.517517,0.766663,0.412633,0.681424,1.33556
11941502646,-2,0,-2,-2,-30,-2,-1,-1,11941486946,-0.635254,0.30957,0.716309,11941486946,1.6875,0.5,1.1875,11941486946,-0.0509644,0.376404,0.517517,0.766663,0.412633,0.681424,1.33556
11941502646,-2,-2,-2,-1,4,-1,-1,-2,11941503373,-0.633301,0.316406,0.711426,11941503373,1.0625,0.1875,0.875,11941503373,-0.0507812,0.376526,0.517578,0.766602,0.41325,0.681369,1.33599
11941517459,1,0,0,2,-2,-1,-2,0,11941503373,-0.633301,0.316406,0.711426,11941503373,1.0625,0.1875,0.875,11941503373,-0.0507812,0.376526,0.517578,0.766602,0.41325,0.681369,1.33599
11941517459,-1,-1,-1,-1,7,0,0,-1,11941503373,-0.633301,0.316406,0.711426,11941503373,1.0625,0.1875,0.875,11941503373,-0.0507812,0.376526,0.517578,0.766602,0.41325,0.681369,1.33599
11941518190,-1,-1,-1,-2,10,1,-2,-4,11941503373,-0.633301,0.316406,0.711426,11941503373,1.0625,0.1875,0.875,11941503373,-0.0507812,0.376526,0.517578,0.766602,0.41325,0.681369,1.33599
11941518190,1,-2,-1,3,-10,-2,-1,-1,11941524500,-0.644531,0.325195,0.727051,11941524500,-0.0625,0.125,1.0625,11941524500,-0.0506592,0.376587,0.5177,0.766479,0.413703,0.681225,1.33647
11941540074,-1,-3,-1,-2,0,3,-1,-2,11941524500,-0.644531,0.325195,0.727051,11941524500,-0.0625,0.125,1.0625,11941524500,-0.0506592,0.376587,0.5177,0.766479,0.413703,0.681225,1.33647
11941540074,-3,-2,-1,0,10,-2,-1,0,11941524500,-0.644531,0.325195,0.727051,11941524500,-0.0625,0.125,1.0625,11941524500,-0.0506592,0.376587,0.5177,0.766479,0.413703,0.681225,1.33647
11941540848,0,-1,-1,0,-14,-1,-3,-2,11941524500,-0.644531,0.325195,0.727051,11941524500,-0.0625,0.125,1.0625,11941524500,-0.0506592,0.376587,0.5177,0.766479,0.413703,0.681225,1.33647
11941540848,-1,-1,-3,-2,-3,-2,-1,-2,11941547014,-0.63623,0.316895,0.725586,11941547014,0,0.1875,1.4375,11941547014,-0.0505371,0.376587,0.517944,0.766296,0.414149,0.680916,1.33718
11941554463,-1,0,-1,-3,4,1,-1,-1,11941547014,-0.63623,0.316895,0.725586,11941547014,0,0.1875,1.4375,11941547014,-0.0505371,0.376587,0.517944,0.766296,0.414149,0.680916,1.33718
11941554463,-1,-1,-3,-1,4,3,-2,0,11941547014,-0.63623,0.316895,0.725586,11941547014,0,0.1875,1.4375,11941547014,-0.0505371,0.376587,0.517944,0.766296,0.414149,0.680916,1.33718
11941562521,1,-1,0,-2,1,-4,0,-1,11941547014,-0.63623,0.316895,0.725586,11941547014,0,0.1875,1.4375,11941547014,-0.0505371,0.376587,0.517944,0.766296,0.414149,0.680916,1.33718
11941562521,-1,1,-2,6,-3,-1,-2,0,11941563367,-0.62793,0.313965,0.721191,11941563367,-0.25,0.0625,0.0625,11941563367,-0.0505371,0.376587,0.517944,0.766357,0.414142,0.680975,1.3372
11941577652,-2,-2,-1,0,1,-3,-2,-1,11941563367,-0.62793,0.313965,0.721191,11941563367,-0.25,0.0625,0.0625,11941563367,-0.0505371,0.376587,0.517944,0.766357,0.414142,0.680975,1.3372
11941577652,-1,-2,-1,-1,-3,0,0,-2,11941563367,-0.62793,0.313965,0.721191,11941563367,-0.25,0.0625,0.0625,11941563367,-0.0505371,0.376587,0.517944,0.766357,0.414142,0.680975,1.3372
11941578316,-2,0,1,-3,2,-2,1,1,11941563367,-0.62793,0.313965,0.721191,11941563367,-0.25,0.0625,0.0625,11941563367,-0.0505371,0.376587,0.517944,0.766357,0.414142,0.680975,1.3372
11941578316,-2,-2,-2,-1,0,2,0,-1,11941584541,-0.646484,0.324219,0.727539,11941584541,-0.0625,-0.125,-1,11941584541,-0.0505371,0.376587,0.517944,0.766357,0.414142,0.680975,1.3372
11941600091,-1,-1,-1,3,2,0,-1,-1,11941584541,-0.646484,0.324219,0.727539,11941584541,-0.0625,-0.125,-1,11941584541,-0.0505371,0.376587,0.517944,0.766357,0.414142,0.680975,1.3372
11941600091,-1,0,-2,-4,-9,-2,-2,-1,11941584541,-0.646484,0.324219,0.727539,11941584541,-0.0625,-0.125,-1,11941584541,-0.0505371,0.376587,0.517944,0.766357,0.414142,0.680975,1.3372
11941600824,1,-1,-1,3,25,2,-2,-1,11941584541,-0.646484,0.324219,0.727539,11941584541,-0.0625,-0.125,-1,11941584541,-0.0505371,0.376587,0.517944,0.766357,0.414142,0.680975,1.3372
11941600824,2,-1,-1,-5,-38,-7,0,-1,11941606962,-0.647461,0.324707,0.72168,11941606962,0.1875,0.0625,-0.5,11941606962,-0.0505371,0.376587,0.517944,0.766296,0.414149,0.680916,1.33718
11941614384,-2,-1,0,-1,1,-1,0,-1,11941606962,-0.647461,0.324707,0.72168,11941606962,0.1875,0.0625,-0.5,11941606962,-0.0505371,0.376587,0.517944,0.766296,0.414149,0.680916,1.33718
11941614384,0,-1,-1,-1,1,1,-3,-2,11941606962,-0.647461,0.324707,0.72168,11941606962,0.1875,0.0625,-0.5,11941606962,-0.0505371,0.376587,0.517944,0.766296,0.414149,0.680916,1.33718
11941622722,-2,-1,-1,0,4,-2,-4,1,11941606962,-0.647461,0.324707,0.72168,11941606962,0.1875,0.0625,-0.5,11941606962,-0.0505371,0.376587,0.517944,0.766296,0.414149,0.680916,1.33718
11941622722,-1,-2,-1,-3,9,-1,-1,-2,11941623370,-0.624023,0.3125,0.722168,11941623370,-0.6875,0.25,0.0625,11941623370,-0.0505371,0.376587,0.517944,0.766357,0.414142,0.680975,1.3372
11941637661,0,2,0,5,-6,-3,-1,-1,11941623370,-0.624023,0.3125,0.722168,11941623370,-0.6875,0.25,0.0625,11941623370,-0.0505371,0.376587,0.517944,0.766357,0.414142,0.680975,1.3372
11941637661,0,-1,-3,0,-5,-3,0,-1,11941623370,-0.624023,0.3125,0.722168,11941623370,-0.6875,0.25,0.0625,11941623370,-0.0505371,0.376587,0.517944,0.766357,0.414142,0.680975,1.3372
11941638348,-3,-2,-1,0,2,0,0,0,11941623370,-0.624023,0.3125,0.722168,11941623370,-0.6875,0.25,0.0625,11941623370,-0.0505371,0.376587,0.517944,0.766357,0.414142,0.680975,1.3372
11941638348,-2,-1,-1,-1,1,-1,0,-1,11941644607,-0.642578,0.319336,0.725098,11941644607,-1.1875,0.3125,-1.1875,11941644607,-0.0507812,0.376526,0.517883,0.766418,0.413543,0.681232,1.33687
11941660072,0,-2,-2,-5,-4,-2,-1,1,11941644607,-0.642578,0.319336,0.725098,11941644607,-1.1875,0.3125,-1.1875,11941644607,-0.0507812,0.376526,0.517883,0.766418,0.413543,0.681232,1.33687
11941660072,1,1,2,4,2,-1,-1,0,11941644607,-0.642578,0.319336,0.725098,11941644607,-1.1875,0.3125,-1.1875,11941644607,-0.0507812,0.376526,0.517883,0.766418,0.413543,0.681232,1.33687
11941660856,-1,0,-2,-1,-6,1,-2,-1,11941644607,-0.642578,0.319336,0.725098,11941644607,-1.1875,0.3125,-1.1875,11941644607,-0.0507812,0.376526,0.517883,0.766418,0.413543,0.681232,1.33687
11941660856,-1,0,-2,1,11,1,-1,1,11941667085,-0.653809,0.313965,0.719727,11941667085,-0.125,0.3125,-0.375,11941667085,-0.0507812,0.376526,0.517883,0.766418,0.413543,0.681232,1.33687
11941683354,1,-3,-2,-3,-9,0,1,-3,11941667085,-0.653809,0.313965,0.719727,11941667085,-0.125,0.3125,-0.375,11941667085,-0.0507812,0.376526,0.517883,0.766418,0.413543,0.681232,1.33687
11941683354,-2,-4,-1,-3,-4,-4,0,-1,11941667085,-0.653809,0.313965,0.719727,11941667085,-0.125,0.3125,-0.375,11941667085,-0.0507812,0.376526,0.517883,0.766418,0.413543,0.681232,1.33687
11941684004,-2,1,1,-2,-2,-1,1,0,11941667085,-0.653809,0.313965,0.719727,11941667085,-0.125,0.3125,-0.375,11941667085,-0.0507812,0.376526,0.517883,0.766418,0.413543,0.681232,1.33687
11941684004,-2,-1,-1,-2,1,1,0,0,11941684756,-0.631348,0.307617,0.717773,11941684756,1.4375,0.125,0.4375,11941684756,-0.0506592,0.376648,0.517822,0.766357,0.413948,0.681243,1.33692
11941705869,0,1,-1,4,9,-2,-2,0,11941684756,-0.631348,0.307617,0.717773,11941684756,1.4375,0.125,0.4375,11941684756,-0.0506592,0.376648,0.517822,0.766357,0.413948,0.681243,1.33692
11941705869,1,-1,-2,-1,-1,2,0,-1,11941684756,-0.631348,0.307617,0.717773,11941684756,1.4375,0.125,0.4375,11941684756,-0.0506592,0.376648,0.517822,0.766357,0.413948,0.681243,1.33692
11941706474,0,-2,-1,-3,-9,-3,-1,-1,11941684756,-0.631348,0.307617,0.717773,11941684756,1.4375,0.125,0.4375,11941684756,-0.0506592,0.376648,0.517822,0.766357,0.413948,0.681243,1.33692
11941706474,-1,0,-1,-4,4,0,0,-1,11941707270,-0.638184,0.30957,0.708984,11941707270,1.3125,-0.5625,-0.625,11941707270,-0.0505371,0.376709,0.517639,0.766479,0.414101,0.681295,1.33654
11941720165,0,0,-2,-4,0,0,-1,-2,11941707270,-0.638184,0.30957,0.708984,11941707270,1.3125,-0.5625,-0.625,11941707270,-0.0505371,0.376709,0.517639,0.766479,0.414101,0.681295,1.33654
11941720165,-2,-1,-2,-3,-8,-4,-1,-1,11941707270,-0.638184,0.30957,0.708984,11941707270,1.3125,-0.5625,-0.625,11941707270,-0.0505371,0.376709,0.517639,0.766479,0.414101,0.681295,1.33654
11941720855,-2,0,-4,1,-2,1,-1,-3,11941707270,-0.638184,0.30957,0.708984,11941707270,1.3125,-0.5625,-0.625,11941707270,-0.0505371,0.376709,0.517639,0.766479,0.414101,0.681295,1.33654
11941720855,-1,-2,0,3,6,3,0,-1,11941727081,-0.658203,0.33252,0.717773,11941727081,-0.875,-0.875,-0.1875,11941727081,-0.0505371,0.37677,0.517639,0.766479,0.414223,0.681415,1.33665
11941743391,-1,-2,0,-2,-2,-1,-2,-2,11941727081,-0.658203,0.33252,0.717773,11941727081,-0.875,-0.875,-0.1875,11941727081,-0.0505371,0.37677,0.517639,0.766479,0.414223,0.681415,1.33665
11941743391,-3,0,-1,0,0,-1,-3,1,11941727081,-0.658203,0.33252,0.717773,11941727081,-0.875,-0.875,-0.1875,11941727081,-0.0505371,0.37677,0.517639,0.766479,0.414223,0.681415,1.33665
11941743944,-1,-1,-1,-1,0,-5,-2,-1,11941727081,-0.658203,0.33252,0.717773,11941727081,-0.875,-0.875,-0.1875,11941727081,-0.0505371,0.37677,0.517639,0.766479,0.414223,0.681415,1.33665
11941743944,-2,-3,-1,0,-4,-1,-1,-2,11941744780,-0.631348,0.328125,0.718262,11941744780,-2.25,-0.75,1.5,11941744780,-0.0504761,0.376526,0.518005,0.766296,0.414185,0.680722,1.33727
11941773329,0,-1,-2,-3,1,1,2,-2,11941744780,-0.631348,0.328125,0.718262,11941744780,-2.25,-0.75,1.5,11941744780,-0.0504761,0.376526,0.518005,0.766296,0.414185,0.680722,1.33727
11941773329,-1,1,0,1,6,-1,-1,0,11941744780,-0.631348,0.328125,0.718262,11941744780,-2.25,-0.75,1.5,11941744780,-0.0504761,0.376526,0.518005,0.766296,0.414185,0.680722,1.33727
11941774038,1,-1,0,0,2,-1,-2,0,11941744780,-0.631348,0.328125,0.718262,11941744780,-2.25,-0.75,1.5,11941744780,-0.0504761,0.376526,0.518005,0.766296,0.414185,0.680722,1.33727
11941774038,1,1,1,-4,-21,-5,-2,1,11941774810,-0.618652,0.307617,0.723145,11941774810,-2.9375,-1.3125,-0.375,11941774810,-0.0507202,0.375916,0.51825,0.766479,0.412744,0.680053,1.33689
11941780111,0,-1,0,4,4,-1,-2,0,11941774810,-0.618652,0.307617,0.723145,11941774810,-2.9375,-1.3125,-0.375,11941774810,-0.0507202,0.375916,0.51825,0.766479,0.412744,0.680053,1.33689
11941780111,-3,-1,-1,-5,3,1,0,-2,11941774810,-0.618652,0.307617,0.723145,11941774810,-2.9375,-1.3125,-0.375,11941774810,-0.0507202,0.375916,0.51825,0.766479,0.412744,0.680053,1.33689
11941780820,1,-3,-3,-6,-1,-1,-2,0,11941774810,-0.618652,0.307617,0.723145,11941774810,-2.9375,-1.3125,-0.375,11941774810,-0.0507202,0.375916,0.51825,0.766479,0.412744,0.680053,1.33689
11941780820,-1,-2,-1,0,9,2,1,-3,11941787043,-0.648438,0.311523,0.735352,11941787043,-0.8125,-1.625,-1.9375,11941787043,-0.0509033,0.375549,0.518005,0.766785,0.411449,0.679838,1.33552
11941803281,-1,0,1,-1,-1,-2,-1,-1,11941787043,-0.648438,0.311523,0.735352,11941787043,-0.8125,-1.625,-1.9375,11941787043,-0.0509033,0.375549,0.518005,0.766785,0.411449,0.679838,1.33552
11941803281,-2,-1,-2,0,-4,2,-1,0,11941787043,-0.648438,0.311523,0.735352,11941787043,-0.8125,-1.625,-1.9375,11941787043,-0.0509033,0.375549,0.518005,0.766785,0.411449,0.679838,1.33552
11941804034,-1,2,-1,-1,-1,-1,2,-1,11941787043,-0.648438,0.311523,0.735352,11941787043,-0.8125,-1.625,-1.9375,11941787043,-0.0509033,0.375549,0.518005,0.766785,0.411449,0.679838,1.33552
11941804034,-2,1,-1,-5,0,-1,-3,-1,11941804771,-0.64209,0.320312,0.717285,11941804771,0.8125,-1.625,-0.875,11941804771,-0.0507202,0.375488,0.517822,0.766907,0.411463,0.679568,1.33493
11941825867,-2,-3,-1,-1,-3,-1,1,-2,11941804771,-0.64209,0.320312,0.717285,11941804771,0.8125,-1.625,-0.875,11941804771,-0.0507202,0.375488,0.517822,0.766907,0.411463,0.679568,1.33493
11941825867,0,-2,-2,-2,-3,-2,-2,-2,11941804771,-0.64209,0.320312,0.717285,11941804771,0.8125,-1.625,-0.875,11941804771,-0.0507202,0.375488,0.517822,0.766907,0.411463,0.679568,1.33493
11941826560,0,-2,0,-2,-2,-2,-1,0,11941804771,-0.64209,0.320312,0.717285,11941804771,0.8125,-1.625,-0.875,11941804771,-0.0507202,0.375488,0.517822,0.766907,0.411463,0.679568,1.33493
11941826560,-1,-2,-1,0,0,0,-2,-3,11941827298,-0.619141,0.30957,0.719238,11941827298,-0.0625,-0.75,-1.4375,11941827298,-0.0506592,0.375305,0.5177,0.767151,0.411065,0.679345,1.3343
11941840182,-2,-1,0,-2,-2,-1,-1,-1,11941827298,-0.619141,0.30957,0.719238,11941827298,-0.0625,-0.75,-1.4375,11941827298,-0.0506592,0.375305,0.5177,0.767151,0.411065,0.679345,1.3343
11941840182,-2,-1,4,4,1,0,0,-1,11941827298,-0.619141,0.30957,0.719238,11941827298,-0.0625,-0.75,-1.4375,11941827298,-0.0506592,0.375305,0.5177,0.767151,0.411065,0.679345,1.3343
11941840786,-1,-2,-2,-2,-2,-1,1,-1,11941827298,-0.619141,0.30957,0.719238,11941827298,-0.0625,-0.75,-1.4375,11941827298,-0.0506592,0.375305,0.5177,0.767151,0.411065,0.679345,1.3343
11941840786,-1,-1,-1,0,8,-3,-1,0,11941847036,-0.64209,0.316895,0.729492,11941847036,-2.625,-1.4375,-3.25,11941847036,-0.0510864,0.374817,0.517456,0.767517,0.409106,0.679272,1.33268
11941863181,-1,0,-1,-4,-10,0,-3,-2,11941847036,-0.64209,0.316895,0.729492,11941847036,-2.625,-1.4375,-3.25,11941847036,-0.0510864,0.374817,0.517456,0.767517,0.409106,0.679272,1.33268
11941863181,-1,0,-5,-3,12,2,-2,0,11941847036,-0.64209,0.316895,0.729492,11941847036,-2.625,-1.4375,-3.25,11941847036,-0.0510864,0.374817,0.517456,0.767517,0.409106,0.679272,1.33268
11941863938,-3,-2,-1,1,-17,-3,-1,0,11941847036,-0.64209,0.316895,0.729492,11941847036,-2.625,-1.4375,-3.25,11941847036,-0.0510864,0.374817,0.517456,0.767517,0.409106,0.679272,1.33268
11941863938,0,2,3,2,-1,-5,-2,-1,11941864808,-0.657715,0.31543,0.721191,11941864808,-2.4375,-2,-2.3125,11941864808,-0.0514526,0.374512,0.517273,0.767761,0.407683,0.679368,1.33155
11941885670,0,-3,-4,-2,6,2,0,-1,11941864808,-0.657715,0.31543,0.721191,11941864808,-2.4375,-2,-2.3125,11941864808,-0.0514526,0.374512,0.517273,0.767761,0.407683,0.679368,1.33155
11941885670,0,-1,-1,-1,-2,-2,0,-2,11941864808,-0.657715,0.31543,0.721191,11941864808,-2.4375,-2,-2.3125,11941864808,-0.0514526,0.374512,0.517273,0.767761,0.407683,0.679368,1.33155
11941886389,-2,1,-1,-2,5,1,-2,-1,11941864808,-0.657715,0.31543,0.721191,11941864808,-2.4375,-2,-2.3125,11941864808,-0.0514526,0.374512,0.517273,0.767761,0.407683,0.679368,1.33155
11941886389,-2,-3,-4,-3,0,1,-1,0,11941887256,-0.642578,0.316895,0.712891,11941887256,-1.8125,-2.5,-1.5,11941887256,-0.0515747,0.374146,0.517151,0.768005,0.406611,0.679026,1.33055
11941900193,-2,0,-1,-2,-2,1,-1,-1,11941887256,-0.642578,0.316895,0.712891,11941887256,-1.8125,-2.5,-1.5,11941887256,-0.0515747,0.374146,0.517151,0.768005,0.406611,0.679026,1.33055
11941900193,-2,0,-1,-2,-1,-3,-3,-1,11941887256,-0.642578,0.316895,0.712891,11941887256,-1.8125,-2.5,-1.5,11941887256,-0.0515747,0.374146,0.517151,0.768005,0.406611,0.679026,1.33055
11941900795,-1,-2,-1,0,3,-1,-1,-2,11941887256,-0.642578,0.316895,0.712891,11941887256,-1.8125,-2.5,-1.5,11941887256,-0.0515747,0.374146,0.517151,0.768005,0.406611,0.679026,1.33055
11941900795,-1,-2,-2,-3,-8,-1,0,-2,11941907066,-0.635254,0.317383,0.709961,11941907066,-1.5,-3,-2,11941907066,-0.0515747,0.373718,0.517029,0.76825,0.405628,0.678401,1.32948
11941923362,1,1,-2,-3,-3,-4,-1,-1,11941907066,-0.635254,0.317383,0.709961,11941907066,-1.5,-3,-2,11941907066,-0.0515747,0.373718,0.517029,0.76825,0.405628,0.678401,1.32948
11941923362,-1,-1,-2,0,-6,2,-2,-1,11941907066,-0.635254,0.317383,0.709961,11941907066,-1.5,-3,-2,11941907066,-0.0515747,0.373718,0.517029,0.76825,0.405628,0.678401,1.32948
11941924027,-1,-1,1,-1,1,0,0,-2,11941907066,-0.635254,0.317383,0.709961,11941907066,-1.5,-3,-2,11941907066,-0.0515747,0.373718,0.517029,0.76825,0.405628,0.678401,1.32948
11941924027,-1,-1,-2,-3,0,1,0,-1,11941924799,-0.645996,0.31543,0.721191,11941924799,-2.3125,-3.75,-2.4375,11941924799,-0.0517578,0.373108,0.516846,0.768677,0.403895,0.677825,1.32789
11941945874,-2,-1,0,2,0,-2,-1,1,11941924799,-0.645996,0.31543,0.721191,11941924799,-2.3125,-3.75,-2.4375,11941924799,-0.0517578,0.373108,0.516846,0.768677,0.403895,0.677825,1.32789
11941945874,-2,-1,-1,0,8,0,0,-1,11941924799,-0.645996,0.31543,0.721191,11941924799,-2.3125,-3.75,-2.4375,11941924799,-0.0517578,0.373108,0.516846,0.768677,0.403895,0.677825,1.32789
11941946461,-2,-1,-1,-3,-19,-2,-1,-2,11941924799,-0.645996,0.31543,0.721191,11941924799,-2.3125,-3.75,-2.4375,11941924799,-0.0517578,0.373108,0.516846,0.768677,0.403895,0.677825,1.32789
11941946461,0,-1,-2,2,4,0,0,-1,11941947282,-0.638672,0.300781,0.722656,11941947282,-3.3125,-4.5,-1.5625,11941947282,-0.052002,0.372253,0.516846,0.769104,0.401742,0.676871,1.32641
11941960159,1,-3,-2,-4,1,0,-1,0,11941947282,-0.638672,0.300781,0.722656,11941947282,-3.3125,-4.5,-1.5625,11941947282,-0.052002,0.372253,0.516846,0.769104,0.401742,0.676871,1.32641
11941960159,-2,-3,-1,-1,-5,-1,0,-2,11941947282,-0.638672,0.300781,0.722656,11941947282,-3.3125,-4.5,-1.5625,11941947282,-0.052002,0.372253,0.516846,0.769104,0.401742,0.676871,1.32641
11941960822,-1,0,-1,-1,7,1,0,-1,11941947282,-0.638672,0.300781,0.722656,11941947282,-3.3125,-4.5,-1.5625,11941947282,-0.052002,0.372253,0.516846,0.769104,0.401742,0.676871,1.32641
11941960822,-2,-2,-1,-1,-3,-2,1,0,11941967039,-0.636719,0.301758,0.729004,11941967039,-3.875,-5.6875,-2.3125,11941967039,-0.0521851,0.371094,0.516846,0.769653,0.399083,0.67535,1.32444
11941983636,-1,-1,-2,2,-3,-5,-2,-1,11941967039,-0.636719,0.301758,0.729004,11941967039,-3.875,-5.6875,-2.3125,11941967039,-0.0521851,0.371094,0.516846,0.769653,0.399083,0.67535,1.32444
11941983636,1,-1,1,-3,0,-2,-1,0,11941967039,-0.636719,0.301758,0.729004,11941967039,-3.875,-5.6875,-2.3125,11941967039,-0.0521851,0.371094,0.516846,0.769653,0.399083,0.67535,1.32444
11941984399,0,-1,-2,0,-1,-1,1,0,11941967039,-0.636719,0.301758,0.729004,11941967039,-3.875,-5.6875,-2.3125,11941967039,-0.0521851,0.371094,0.516846,0.769653,0.399083,0.67535,1.32444
11941984399,-1,-1,-1,-1,-1,-1,-1,-1,11941985190,-0.63623,0.29541,0.734863,11941985190,-2.3125,-5.875,-1.9375,11941985190,-0.0522461,0.369995,0.516785,0.770203,0.396709,0.673777,1.32243
11942005640,-1,1,-1,-1,2,1,-1,0,11941985190,-0.63623,0.29541,0.734863,11941985190,-2.3125,-5.875,-1.9375,11941985190,-0.0522461,0.369995,0.516785,0.770203,0.396709,0.673777,1.32243
11942005640,0,-1,0,-1,11,0,-1,-1,11942006440,-0.640625,0.294434,0.724609,11942006440,-0.5625,-6.875,-2.625,11942006440,-0.052002,0.36908,0.516418,0.770874,0.394943,0.672236,1.31995
11942007250,-1,-2,-2,-1,-8,-3,-2,1,11942006440,-0.640625,0.294434,0.724609,11942006440,-0.5625,-6.875,-2.625,11942006440,-0.052002,0.36908,0.516418,0.770874,0.394943,0.672236,1.31995
11942007250,0,0,0,-5,-11,2,-2,-2,11942006440,-0.640625,0.294434,0.724609,11942006440,-0.5625,-6.875,-2.625,11942006440,-0.052002,0.36908,0.516418,0.770874,0.394943,0.672236,1.31995
11942019939,0,0,-2,-1,5,3,-1,1,11942006440,-0.640625,0.294434,0.724609,11942006440,-0.5625,-6.875,-2.625,11942006440,-0.052002,0.36908,0.516418,0.770874,0.394943,0.672236,1.31995
11942019939,0,0,0,-3,-10,-4,-1,-2,11942006440,-0.640625,0.294434,0.724609,11942006440,-0.5625,-6.875,-2.625,11942006440,-0.052002,0.36908,0.516418,0.770874,0.394943,0.672236,1.31995
11942020748,-1,0,0,1,15,2,-1,-1,11942006440,-0.640625,0.294434,0.724609,11942006440,-0.5625,-6.875,-2.625,11942006440,-0.052002,0.36908,0.516418,0.770874,0.394943,0.672236,1.31995
11942020748,-1,-1,-3,1,2,-2,-2,0,11942026786,-0.646484,0.306641,0.722656,11942026786,-0.4375,-7.5,-1.625,11942026786,-0.0515747,0.368225,0.516235,0.771423,0.393791,0.670483,1.31814
11942043150,-3,-2,-1,-5,-8,-1,-1,-1,11942026786,-0.646484,0.306641,0.722656,11942026786,-0.4375,-7.5,-1.625,11942026786,-0.0515747,0.368225,0.516235,0.771423,0.393791,0.670483,1.31814
11942043150,-1,0,0,-1,-1,0,-1,-2,11942026786,-0.646484,0.306641,0.722656,11942026786,-0.4375,-7.5,-1.625,11942026786,-0.0515747,0.368225,0.516235,0.771423,0.393791,0.670483,1.31814
11942043940,1,0,0,1,-2,0,-1,-3,11942026786,-0.646484,0.306641,0.722656,11942026786,-0.4375,-7.5,-1.625,11942026786,-0.0515747,0.368225,0.516235,0.771423,0.393791,0.670483,1.31814
11942043940,0,-1,0,0,-2,0,-1,-1,11942044735,-0.638672,0.296387,0.714355,11942044735,-1.1875,-9.25,-1.0625,11942044735,-0.0511475,0.367065,0.516174,0.772095,0.392148,0.668259,1.31621
11942065659,0,1,0,-3,0,-2,-1,-2,11942044735,-0.638672,0.296387,0.714355,11942044735,-1.1875,-9.25,-1.0625,11942044735,-0.0511475,0.367065,0.516174,0.772095,0.392148,0.668259,1.31621
11942065659,-1,-2,-3,1,-6,-2,-1,-2,11942044735,-0.638672,0.296387,0.714355,11942044735,-1.1875,-9.25,-1.0625,11942044735,-0.0511475,0.367065,0.516174,0.772095,0.392148,0.668259,1.31621
11942066424,-1,-3,0,-2,-1,1,-2,-1,11942044735,-0.638672,0.296387,0.714355,11942044735,-1.1875,-9.25,-1.0625,11942044735,-0.0511475,0.367065,0.516174,0.772095,0.392148,0.668259,1.31621
11942066424,-1,-2,-3,0,1,-2,-1,-1,11942067281,-0.638184,0.302246,0.714844,11942067281,-2.625,-11.75,-0.375,11942067281,-0.0505371,0.365479,0.516296,0.772766,0.390166,0.66498,1.31414
11942079894,0,1,0,1,0,-1,-1,-4,11942067281,-0.638184,0.302246,0.714844,11942067281,-2.625,-11.75,-0.375,11942067281,-0.0505371,0.365479,0.516296,0.772766,0.390166,0.66498,1.31414
11942079894,0,-2,-3,-2,-4,-1,-1,0,11942067281,-0.638184,0.302246,0.714844,11942067281,-2.625,-11.75,-0.375,11942067281,-0.0505371,0.365479,0.516296,0.772766,0.390166,0.66498,1.31414
11942080706,-2,-1,0,-1,1,3,-2,-1,11942067281,-0.638184,0.302246,0.714844,11942067281,-2.625,-11.75,-0.375,11942067281,-0.0505371,0.365479,0.516296,0.772766,0.390166,0.66498,1.31414
11942080706,0,0,0,2,5,-3,0,-1,11942086806,-0.637695,0.292969,0.72168,11942086806,-3.875,-14.5625,1.6875,11942086806,-0.0498657,0.363403,0.516846,0.773499,0.387731,0.660776,1.31256
11942103196,0,-2,0,-2,1,-1,-2,-2,11942086806,-0.637695,0.292969,0.72168,11942086806,-3.875,-14.5625,1.6875,11942086806,-0.0498657,0.363403,0.516846,0.773499,0.387731,0.660776,1.31256
11942103196,-2,-1,-3,-5,-13,2,-2,-2,11942086806,-0.637695,0.292969,0.72168,11942086806,-3.875,-14.5625,1.6875,11942086806,-0.0498657,0.363403,0.516846,0.773499,0.387731,0.660776,1.31256
11942103971,0,0,-1,1,2,-1,-1,0,11942086806,-0.637695,0.292969,0.72168,11942086806,-3.875,-14.5625,1.6875,11942086806,-0.0498657,0.363403,0.516846,0.773499,0.387731,0.660776,1.31256
11942103971,-2,-1,-2,-4,-3,-1,-1,0,11942104796,-0.632812,0.289551,0.720215,11942104796,-4,-17.5,6.0625,11942104796,-0.048645,0.360962,0.517944,0.773926,0.386066,0.654933,1.31207
11942126520,-2,0,0,1,2,-4,-2,0,11942104796,-0.632812,0.289551,0.720215,11942104796,-4,-17.5,6.0625,11942104796,-0.048645,0.360962,0.517944,0.773926,0.386066,0.654933,1.31207
11942126520,1,-1,0,1,-2,-2,-1,-1,11942104796,-0.632812,0.289551,0.720215,11942104796,-4,-17.5,6.0625,11942104796,-0.048645,0.360962,0.517944,0.773926,0.386066,0.654933,1.31207
11942127193,0,0,-3,0,1,2,0,-2,11942104796,-0.632812,0.289551,0.720215,11942104796,-4,-17.5,6.0625,11942104796,-0.048645,0.360962,0.517944,0.773926,0.386066,0.654933,1.31207
11942127193,-2,-1,0,-1,0,-2,-1,-2,11942128019,-0.626953,0.282715,0.728027,11942128019,-4.3125,-21.9375,8.1875,11942128019,-0.0470581,0.357849,0.519348,0.774536,0.384018,0.647524,1.31154
11942139336,1,-2,-4,-1,3,-2,2,-1,11942128019,-0.626953,0.282715,0.728027,11942128019,-4.3125,-21.9375,8.1875,11942128019,-0.0470581,0.357849,0.519348,0.774536,0.384018,0.647524,1.31154
11942139336,-1,-1,-2,-6,-12,0,-2,-2,11942128019,-0.626953,0.282715,0.728027,11942128019,-4.3125,-21.9375,8.1875,11942128019,-0.0470581,0.357849,0.519348,0.774536,0.384018,0.647524,1.31154
11942155195,0,-1,-3,-4,-1,-2,-1,-1,11942128019,-0.626953,0.282715,0.728027,11942128019,-4.3125,-21.9375,8.1875,11942128019,-0.0470581,0.357849,0.519348,0.774536,0.384018,0.647524,1.31154
11942155195,-1,-1,1,1,-2,-1,-3,0,11942155882,-0.620605,0.265625,0.727051,11942155882,-3,-26,12.5625,11942155882,-0.0447998,0.354309,0.52124,0.775024,0.382763,0.638385,1.31193
11942162573,-2,-1,1,11,2,-1,-1,0,11942155882,-0.620605,0.265625,0.727051,11942155882,-3,-26,12.5625,11942155882,-0.0447998,0.354309,0.52124,0.775024,0.382763,0.638385,1.31193
11942162573,-2,0,-3,-4,4,-2,-1,1,11942163371,-0.606934,0.283203,0.741211,11942163371,-1.875,-29.6875,15.875,11942163371,-0.041687,0.350342,0.523621,0.775391,0.382601,0.627299,1.31328
11942169434,0,-1,0,3,-3,-4,-2,-2,11942163371,-0.606934,0.283203,0.741211,11942163371,-1.875,-29.6875,15.875,11942163371,-0.041687,0.350342,0.523621,0.775391,0.382601,0.627299,1.31328
11942169434,-3,-1,0,-4,12,5,0,-3,11942163371,-0.606934,0.283203,0.741211,11942163371,-1.875,-29.6875,15.875,11942163371,-0.041687,0.350342,0.523621,0.775391,0.382601,0.627299,1.31328
11942185885,-1,-2,-2,-15,-10,2,1,-1,11942163371,-0.606934,0.283203,0.741211,11942163371,-1.875,-29.6875,15.875,11942163371,-0.041687,0.350342,0.523621,0.775391,0.382601,0.627299,1.31328
11942185885,-2,-3,-7,-15,-7,-5,-1,0,11942186499,-0.595215,0.288086,0.753906,11942186499,-3.75,-33.75,16.5,11942186499,-0.0383301,0.345642,0.526245,0.77594,0.381701,0.614729,1.31435
11942187287,2,1,9,40,1,-3,-1,0,11942186499,-0.595215,0.288086,0.753906,11942186499,-3.75,-33.75,16.5,11942186499,-0.0383301,0.345642,0.526245,0.77594,0.381701,0.614729,1.31435
11942187287,2,1,3,17,-7,-6,0,1,11942186499,-0.595215,0.288086,0.753906,11942186499,-3.75,-33.75,16.5,11942186499,-0.0383301,0.345642,0.526245,0.77594,0.381701,0.614729,1.31435
11942199488,-4,12,-1,-5,3,4,2,-2,11942186499,-0.595215,0.288086,0.753906,11942186499,-3.75,-33.75,16.5,11942186499,-0.0383301,0.345642,0.526245,0.77594,0.381701,0.614729,1.31435
11942199488,12,-15,-9,-51,37,11,23,6,11942207607,-0.597168,0.309082,0.749512,11942207607,-7.0625,-39.25,19.125,11942207607,-0.034729,0.340149,0.529358,0.776367,0.380194,0.600347,1.31573
11942208308,-29,1,-4,11,-40,-9,-5,22,11942207607,-0.597168,0.309082,0.749512,11942207607,-7.0625,-39.25,19.125,11942207607,-0.034729,0.340149,0.529358,0.776367,0.380194,0.600347,1.31573
11942208308,2,-28,-3,6,0,-11,-20,-33,11942207607,-0.597168,0.309082,0.749512,11942207607,-7.0625,-39.25,19.125,11942207607,-0.034729,0.340149,0.529358,0.776367,0.380194,0.600347,1.31573
11942222667,17,40,2,-2,-11,-9,-36,-7,11942207607,-0.597168,0.309082,0.749512,11942207607,-7.0625,-39.25,19.125,11942207607,-0.034729,0.340149,0.529358,0.776367,0.380194,0.600347,1.31573
11942222667,0,12,4,4,-2,-6,11,8,11942223383,-0.547363,0.380371,0.733398,11942223383,1.3125,-38.75,11.9375,11942223383,-0.0296021,0.335693,0.53125,0.777283,0.382188,0.586332,1.31572
11942229399,61,10,4,-20,27,17,35,27,11942223383,-0.547363,0.380371,0.733398,11942223383,1.3125,-38.75,11.9375,11942223383,-0.0296021,0.335693,0.53125,0.777283,0.382188,0.586332,1.31572
11942229399,-70,-27,-12,-8,-12,13,-32,-2,11942223383,-0.547363,0.380371,0.733398,11942223383,1.3125,-38.75,11.9375,11942223383,-0.0296021,0.335693,0.53125,0.777283,0.382188,0.586332,1.31572
11942245816,-13,-34,-10,-1,21,-19,8,-56,11942223383,-0.547363,0.380371,0.733398,11942223383,1.3125,-38.75,11.9375,11942223383,-0.0296021,0.335693,0.53125,0.777283,0.382188,0.586332,1.31572
11942245816,-18,19,3,6,-26,-28,-44,-34,11942246484,-0.52832,0.345703,0.777344,11942246484,-0.625,-28.6875,15.4375,11942246484,-0.0256958,0.331909,0.53363,0.777405,0.383759,0.574577,1.31774
11942247225,22,21,1,-16,-71,-4,18,-9,11942246484,-0.52832,0.345703,0.777344,11942246484,-0.625,-28.6875,15.4375,11942246484,-0.0256958,0.331909,0.53363,0.777405,0.383759,0.574577,1.31774
11942247225,24,14,8,5,12,0,27,22,11942246484,-0.52832,0.345703,0.777344,11942246484,-0.625,-28.6875,15.4375,11942246484,-0.0256958,0.331909,0.53363,0.777405,0.383759,0.574577,1.31774
11942259540,-9,-3,0,-3,-6,37,37,27,11942246484,-0.52832,0.345703,0.777344,11942246484,-0.625,-28.6875,15.4375,11942246484,-0.0256958,0.331909,0.53363,0.777405,0.383759,0.574577,1.31774
11942259540,-1,-14,3,27,38,26,-20,-5,11942267612,-0.503418,0.450684,0.793945,11942267612,-39.4375,-34.25,32.1875,11942267612,-0.0244751,0.324219,0.540771,0.775757,0.377504,0.558012,1.32683
11942268521,-15,-8,-1,0,-2,-39,-14,-9,11942267612,-0.503418,0.450684,0.793945,11942267612,-39.4375,-34.25,32.1875,11942267612,-0.0244751,0.324219,0.540771,0.775757,0.377504,0.558012,1.32683
11942268521,11,14,-8,-18,-21,-39,-4,-3,11942267612,-0.503418,0.450684,0.793945,11942267612,-39.4375,-34.25,32.1875,11942267612,-0.0244751,0.324219,0.540771,0.775757,0.377504,0.558012,1.32683
11942282619,-2,-18,-5,-10,6,-13,2,8,11942267612,-0.503418,0.450684,0.793945,11942267612,-39.4375,-34.25,32.1875,11942267612,-0.0244751,0.324219,0.540771,0.775757,0.377504,0.558012,1.32683
11942282619,5,19,10,20,-21,20,28,-10,11942283334,-0.438477,0.416016,0.930664,11942283334,-49.9375,-23.3125,14.4375,11942283334,-0.0265503,0.315491,0.546265,0.775391,0.362809,0.54482,1.32976
11942289438,-11,-18,-17,-44,10,20,-8,17,11942283334,-0.438477,0.416016,0.930664,11942283334,-49.9375,-23.3125,14.4375,11942283334,-0.0265503,0.315491,0.546265,0.775391,0.362809,0.54482,1.32976
11942289438,10,-6,7,56,35,4,-45,10,11942283334,-0.438477,0.416016,0.930664,11942283334,-49.9375,-23.3125,14.4375,11942283334,-0.0265503,0.315491,0.546265,0.775391,0.362809,0.54482,1.32976
11942305677,-7,-4,4,12,6,-10,10,7,11942283334,-0.438477,0.416016,0.930664,11942283334,-49.9375,-23.3125,14.4375,11942283334,-0.0265503,0.315491,0.546265,0.775391,0.362809,0.54482,1.32976
11942305677,4,4,0,1,-33,7,-2,11,11942306483,-0.48877,0.225098,0.872559,11942306483,-26.375,-12.9375,-0.625,11942306483,-0.0293579,0.310181,0.547729,0.776428,0.350047,0.539639,1.32641
11942307280,-3,-4,-6,-22,29,-2,-9,-30,11942306483,-0.48877,0.225098,0.872559,11942306483,-26.375,-12.9375,-0.625,11942306483,-0.0293579,0.310181,0.547729,0.776428,0.350047,0.539639,1.32641
11942307280,-15,2,-5,-26,-21,20,49,13,11942306483,-0.48877,0.225098,0.872559,11942306483,-26.375,-12.9375,-0.625,11942306483,-0.0293579,0.310181,0.547729,0.776428,0.350047,0.539639,1.32641
11942319349,21,3,6,8,-5,-2,1,7,11942306483,-0.48877,0.225098,0.872559,11942306483,-26.375,-12.9375,-0.625,11942306483,-0.0293579,0.310181,0.547729,0.776428,0.350047,0.539639,1.32641
11942319349,1,-8,-4,11,5,-5,43,35,11942327481,-0.552734,0.119629,0.79248,11942327481,-7,-6.5,11.9375,11942327481,-0.0309448,0.308167,0.549255,0.776062,0.345073,0.537868,1.32769
11942328253,-32,-13,-10,-10,5,-10,-79,-86,11942327481,-0.552734,0.119629,0.79248,11942327481,-7,-6.5,11.9375,11942327481,-0.0309448,0.308167,0.549255,0.776062,0.345073,0.537868,1.32769
11942328253,25,6,-1,-6,5,-13,-52,-6,11942327481,-0.552734,0.119629,0.79248,11942327481,-7,-6.5,11.9375,11942327481,-0.0309448,0.308167,0.549255,0.776062,0.345073,0.537868,1.32769
11942342553,-31,6,-9,-38,36,19,20,-16,11942327481,-0.552734,0.119629,0.79248,11942327481,-7,-6.5,11.9375,11942327481,-0.0309448,0.308167,0.549255,0.776062,0.345073,0.537868,1.32769
11942342553,26,9,13,23,-24,4,50,53,11942343303,-0.530762,0.227539,0.793945,11942343303,-6.8125,-15.8125,13.625,11942343303,-0.0303955,0.30542,0.551392,0.775696,0.342809,0.532102,1.33014
11942349282,-25,-24,4,55,16,4,-29,36,11942343303,-0.530762,0.227539,0.793945,11942343303,-6.8125,-15.8125,13.625,11942343303,-0.0303955,0.30542,0.551392,0.775696,0.342809,0.532102,1.33014
11942349282,0,8,2,15,-42,-22,25,35,11942343303,-0.530762,0.227539,0.793945,11942343303,-6.8125,-15.8125,13.625,11942343303,-0.0303955,0.30542,0.551392,0.775696,0.342809,0.532102,1.33014
11942365888,1,8,-10,-34,-9,-5,-35,-85,11942343303,-0.530762,0.227539,0.793945,11942343303,-6.8125,-15.8125,13.625,11942343303,-0.0303955,0.30542,0.551392,0.775696,0.342809,0.532102,1.33014
11942365888,-4,-36,-11,-15,29,6,-14,2,11942366503,-0.504395,0.293457,0.884277,11942366503,-9.1875,-11.5625,18.5,11942366503,-0.0294189,0.302612,0.554504,0.774597,0.341837,0.525252,1.33524
11942367294,-2,12,-7,-66,16,3,69,22,11942366503,-0.504395,0.293457,0.884277,11942366503,-9.1875,-11.5625,18.5,11942366503,-0.0294189,0.302612,0.554504,0.774597,0.341837,0.525252,1.33524
11942367294,36,13,12,65,21,38,2,32,11942366503,-0.504395,0.293457,0.884277,11942366503,-9.1875,-11.5625,18.5,11942366503,-0.0294189,0.302612,0.554504,0.774597,0.341837,0.525252,1.33524
11942379423,-7,-10,-6,1,-20,-52,-21,11,11942366503,-0.504395,0.293457,0.884277,11942366503,-9.1875,-11.5625,18.5,11942366503,-0.0294189,0.302612,0.554504,0.774597,0.341837,0.525252,1.33524
11942379423,-24,-5,-14,-13,6,-9,-21,-13,11942387789,-0.461426,0.294922,0.852051,11942387789,13.4375,-7.1875,4.75,11942387789,-0.0264282,0.302429,0.554626,0.774658,0.346512,0.521146,1.33586
11942388535,4,8,12,5,-45,3,-21,-37,11942387789,-0.461426,0.294922,0.852051,11942387789,13.4375,-7.1875,4.75,11942387789,-0.0264282,0.302429,0.554626,0.774658,0.346512,0.521146,1.33586
11942388535,-10,-2,-7,-41,18,30,8,-46,11942387789,-0.461426,0.294922,0.852051,11942387789,13.4375,-7.1875,4.75,11942387789,-0.0264282,0.302429,0.554626,0.774658,0.346512,0.521146,1.33586
11942402640,23,-7,0,3,-17,-21,13,38,11942387789,-0.461426,0.294922,0.852051,11942387789,13.4375,-7.1875,4.75,11942387789,-0.0264282,0.302429,0.554626,0.774658,0.346512,0.521146,1.33586
11942402640,-33,0,-2,10,21,-7,-41,-43,11942403492,-0.480469,0.259277,0.828125,11942403492,-9.5625,-5.5625,5.9375,11942403492,-0.0270386,0.300415,0.555969,0.774475,0.343029,0.518287,1.33691
11942409492,46,-3,-2,3,23,6,8,40,11942403492,-0.480469,0.259277,0.828125,11942403492,-9.5625,-5.5625,5.9375,11942403492,-0.0270386,0.300415,0.555969,0.774475,0.343029,0.518287,1.33691
11942409492,-38,0,-7,-45,-50,-11,27,19,11942403492,-0.480469,0.259277,0.828125,11942403492,-9.5625,-5.5625,5.9375,11942403492,-0.0270386,0.300415,0.555969,0.774475,0.343029,0.518287,1.33691
11942433322,-9,4,8,34,29,34,-16,-26,11942403492,-0.480469,0.259277,0.828125,11942403492,-9.5625,-5.5625,5.9375,11942403492,-0.0270386,0.300415,0.555969,0.774475,0.343029,0.518287,1.33691
11942433322,24,5,2,-9,-27,-18,-47,-13,11942434068,-0.500488,0.270996,0.847656,11942434068,-20.25,-5.8125,19.5625,11942434068,-0.0283813,0.297546,0.559692,0.772827,0.338559,0.51401,1.34323
11942434763,-18,-2,5,45,45,7,49,52,11942434068,-0.500488,0.270996,0.847656,11942434068,-20.25,-5.8125,19.5625,11942434068,-0.0283813,0.297546,0.559692,0.772827,0.338559,0.51401,1.34323
11942434763,-17,-11,-16,-30,-19,-15,-7,-23,11942434068,-0.500488,0.270996,0.847656,11942434068,-20.25,-5.8125,19.5625,11942434068,-0.0283813,0.297546,0.559692,0.772827,0.338559,0.51401,1.34323
11942448293,-15,-12,11,32,-7,5,7,53,11942434068,-0.500488,0.270996,0.847656,11942434068,-20.25,-5.8125,19.5625,11942434068,-0.0283813,0.297546,0.559692,0.772827,0.338559,0.51401,1.34323
11942448293,4,0,-12,-33,-9,-7,-6,-22,11942449036,-0.480957,0.181641,0.836914,11942449036,-15.3125,-6.5,16.25,11942449036,-0.0299072,0.294495,0.562561,0.771851,0.3329,0.510096,1.34706
11942449768,36,-1,0,-15,53,25,7,36,11942449036,-0.480957,0.181641,0.836914,11942449036,-15.3125,-6.5,16.25,11942449036,-0.0299072,0.294495,0.562561,0.771851,0.3329,0.510096,1.34706
11942449768,-79,30,19,85,-24,2,35,-32,11942449036,-0.480957,0.181641,0.836914,11942449036,-15.3125,-6.5,16.25,11942449036,-0.0299072,0.294495,0.562561,0.771851,0.3329,0.510096,1.34706
11942462694,9,-42,-11,-1,-52,-17,-8,53,11942449036,-0.480957,0.181641,0.836914,11942449036,-15.3125,-6.5,16.25,11942449036,-0.0299072,0.294495,0.562561,0.771851,0.3329,0.510096,1.34706
11942462694,4,-1,-1,42,43,-24,2,-16,11942463450,-0.486328,0.226074,0.844238,11942463450,8.1875,-9.5625,18,11942463450,-0.0275269,0.29364,0.564575,0.770813,0.336691,0.504952,1.35186
11942469551,9,1,3,-7,-28,6,12,-16,11942463450,-0.486328,0.226074,0.844238,11942463450,8.1875,-9.5625,18,11942463450,-0.0275269,0.29364,0.564575,0.770813,0.336691,0.504952,1.35186
11942469551,104,27,0,-32,-3,6,-19,14,11942463450,-0.486328,0.226074,0.844238,11942463450,8.1875,-9.5625,18,11942463450,-0.0275269,0.29364,0.564575,0.770813,0.336691,0.504952,1.35186
11942485907,11,29,-3,-49,-23,11,39,33,11942463450,-0.486328,0.226074,0.844238,11942463450,8.1875,-9.5625,18,11942463450,-0.0275269,0.29364,0.564575,0.770813,0.336691,0.504952,1.35186
11942485907,-33,-12,4,23,-22,8,-2,24,11942486569,-0.483887,0.319336,0.833008,11942486569,14.9375,-9.5625,19.125,11942486569,-0.0234375,0.294067,0.566406,0.76947,0.345247,0.499632,1.35794
11942487321,-106,-57,-17,-20,80,2,16,-3,11942486569,-0.483887,0.319336,0.833008,11942486569,14.9375,-9.5625,19.125,11942486569,-0.0234375,0.294067,0.566406,0.76947,0.345247,0.499632,1.35794
11942487321,15,-6,1,-16,-57,-5,-44,20,11942486569,-0.483887,0.319336,0.833008,11942486569,14.9375,-9.5625,19.125,11942486569,-0.0234375,0.294067,0.566406,0.76947,0.345247,0.499632,1.35794
11942508336,13,-7,-2,18,19,3,24,10,11942486569,-0.483887,0.319336,0.833008,11942486569,14.9375,-9.5625,19.125,11942486569,-0.0234375,0.294067,0.566406,0.76947,0.345247,0.499632,1.35794
11942508336,70,23,5,-19,6,8,14,16,11942509048,-0.483887,0.299805,0.827637,11942509048,13.25,-8.6875,23.75,11942509048,-0.0196533,0.294312,0.568909,0.767578,0.353406,0.494028,1.3655
11942509807,-12,9,-11,1,-44,-12,-21,-14,11942509048,-0.483887,0.299805,0.827637,11942509048,13.25,-8.6875,23.75,11942509048,-0.0196533,0.294312,0.568909,0.767578,0.353406,0.494028,1.3655
11942509807,-6,-7,-1,4,45,-11,0,-26,11942509048,-0.483887,0.299805,0.827637,11942509048,13.25,-8.6875,23.75,11942509048,-0.0196533,0.294312,0.568909,0.767578,0.353406,0.494028,1.3655
11942522524,0,9,-11,-50,42,23,9,39,11942509048,-0.483887,0.299805,0.827637,11942509048,13.25,-8.6875,23.75,11942509048,-0.0196533,0.294312,0.568909,0.767578,0.353406,0.494028,1.3655
11942522524,1,6,21,90,5,-18,1,-6,11942523280,-0.516113,0.312988,0.783691,11942523280,13.3125,-11.1875,26.4375,11942523280,-0.0157471,0.294861,0.571655,0.765442,0.36238,0.488613,1.37411
11942529326,94,22,-1,-34,0,0,-11,-10,11942523280,-0.516113,0.312988,0.783691,11942523280,13.3125,-11.1875,26.4375,11942523280,-0.0157471,0.294861,0.571655,0.765442,0.36238,0.488613,1.37411
11942529326,-88,-33,-14,-39,-38,-2,-7,-13,11942523280,-0.516113,0.312988,0.783691,11942523280,13.3125,-11.1875,26.4375,11942523280,-0.0157471,0.294861,0.571655,0.765442,0.36238,0.488613,1.37411
11942545630,43,-1,-5,-35,-4,10,-27,-29,11942523280,-0.516113,0.312988,0.783691,11942523280,13.3125,-11.1875,26.4375,11942523280,-0.0157471,0.294861,0.571655,0.765442,0.36238,0.488613,1.37411
11942545630,-87,-23,-23,-83,67,13,10,-9,11942546433,-0.509766,0.330566,0.786133,11942546433,9.875,-13,21.1875,11942546433,-0.0122681,0.294861,0.573792,0.763916,0.369296,0.483156,1.38032
11942547236,37,12,20,88,-92,-11,-9,-17,11942546433,-0.509766,0.330566,0.786133,11942546433,9.875,-13,21.1875,11942546433,-0.0122681,0.294861,0.573792,0.763916,0.369296,0.483156,1.38032
11942547236,47,22,9,52,96,8,63,81,11942546433,-0.509766,0.330566,0.786133,11942546433,9.875,-13,21.1875,11942546433,-0.0122681,0.294861,0.573792,0.763916,0.369296,0.483156,1.38032
11942568151,40,5,4,-5,-7,-8,-38,-18,11942546433,-0.509766,0.330566,0.786133,11942546433,9.875,-13,21.1875,11942546433,-0.0122681,0.294861,0.573792,0.763916,0.369296,0.483156,1.38032
11942568151,-68,-38,-7,-25,-54,2,-21,-24,11942568953,-0.483398,0.345215,0.841797,11942568953,4.25,-14.25,22.5,11942568953,-0.00909424,0.29364,0.576599,0.762329,0.374036,0.475956,1.38679
11942569751,-9,17,0,-11,25,-9,18,54,11942568953,-0.483398,0.345215,0.841797,11942568953,4.25,-14.25,22.5,11942568953,-0.00909424,0.29364,0.576599,0.762329,0.374036,0.475956,1.38679
11942569751,81,16,-2,-30,11,-3,72,8,11942568953,-0.483398,0.345215,0.841797,11942568953,4.25,-14.25,22.5,11942568953,-0.00909424,0.29364,0.576599,0.762329,0.374036,0.475956,1.38679
11942583154,-96,-63,-8,23,-50,1,-16,-15,11942568953,-0.483398,0.345215,0.841797,11942568953,4.25,-14.25,22.5,11942568953,-0.00909424,0.29364,0.576599,0.762329,0.374036,0.475956,1.38679
11942583154,122,40,14,44,6,-4,50,60,11942583932,-0.450684,0.36084,0.834961,11942583932,4.5625,-15.625,28.1875,11942583932,-0.00518799,0.292236,0.5802,0.760193,0.380056,0.467137,1.39525
11942589273,-82,-2,-8,-19,27,3,-104,-87,11942583932,-0.450684,0.36084,0.834961,11942583932,4.5625,-15.625,28.1875,11942583932,-0.00518799,0.292236,0.5802,0.760193,0.380056,0.467137,1.39525
11942589273,-11,-7,6,26,50,-5,-15,60,11942583932,-0.450684,0.36084,0.834961,11942583932,4.5625,-15.625,28.1875,11942583932,-0.00518799,0.292236,0.5802,0.760193,0.380056,0.467137,1.39525
11942605752,6,-27,-9,-22,-88,-33,0,18,11942583932,-0.450684,0.36084,0.834961,11942583932,4.5625,-15.625,28.1875,11942583932,-0.00518799,0.292236,0.5802,0.760193,0.380056,0.467137,1.39525
11942605752,1,0,-2,-16,-9,4,-49,-78,11942606522,-0.466797,0.34375,0.848145,11942606522,-11.8125,-18.125,21.6875,11942606522,-0.00384521,0.288818,0.583618,0.75885,0.378464,0.45875,1.40049
11942607385,11,4,-7,-32,48,5,23,43,11942606522,-0.466797,0.34375,0.848145,11942606522,-11.8125,-18.125,21.6875,11942606522,-0.00384521,0.288818,0.583618,0.75885,0.378464,0.45875,1.40049
11942607385,-14,9,-1,-18,-31,-9,-17,-68,11942606522,-0.466797,0.34375,0.848145,11942606522,-11.8125,-18.125,21.6875,11942606522,-0.00384521,0.288818,0.583618,0.75885,0.378464,0.45875,1.40049
11942628278,36,25,11,70,50,2,16,10,11942606522,-0.466797,0.34375,0.848145,11942606522,-11.8125,-18.125,21.6875,11942606522,-0.00384521,0.288818,0.583618,0.75885,0.378464,0.45875,1.40049
11942628278,-49,-12,-8,-43,-38,-4,3,23,11942629080,-0.425781,0.306641,0.897461,11942629080,8.25,-18.9375,20.8125,11942629080,0,0.286499,0.58606,0.757874,0.382028,0.449217,1.40471
11942629774,21,18,20,72,23,-1,14,-2,11942629080,-0.425781,0.306641,0.897461,11942629080,8.25,-18.9375,20.8125,11942629080,0,0.286499,0.58606,0.757874,0.382028,0.449217,1.40471
11942629774,-9,-21,-16,-55,-50,-7,-33,-64,11942629080,-0.425781,0.306641,0.897461,11942629080,8.25,-18.9375,20.8125,11942629080,0,0.286499,0.58606,0.757874,0.382028,0.449217,1.40471
11942642706,-10,20,7,17,50,15,7,8,11942629080,-0.425781,0.306641,0.897461,11942629080,8.25,-18.9375,20.8125,11942629080,0,0.286499,0.58606,0.757874,0.382028,0.449217,1.40471
11942642706,46,8,-10,-85,22,5,13,74,11942643405,-0.437012,0.423828,0.810547,11942643405,13.8125,-19.5,12.875,11942643405,0.00518799,0.286072,0.587097,0.757202,0.390007,0.441324,1.40752
11942649498,-55,-19,3,69,-2,-11,21,-36,11942643405,-0.437012,0.423828,0.810547,11942643405,13.8125,-19.5,12.875,11942643405,0.00518799,0.286072,0.587097,0.757202,0.390007,0.441324,1.40752
11942649498,-23,9,-15,-101,-7,16,51,46,11942643405,-0.437012,0.423828,0.810547,11942643405,13.8125,-19.5,12.875,11942643405,0.00518799,0.286072,0.587097,0.757202,0.390007,0.441324,1.40752
11942665839,1,-4,14,87,-19,-28,-67,-40,11942643405,-0.437012,0.423828,0.810547,11942643405,13.8125,-19.5,12.875,11942643405,0.00518799,0.286072,0.587097,0.757202,0.390007,0.441324,1.40752
11942665839,29,19,7,43,37,-8,3,-32,11942666578,-0.393555,0.389648,0.881836,11942666578,7.4375,-14.1875,9.375,11942666578,0.00866699,0.284668,0.588135,0.756897,0.393664,0.434254,1.409
11942667317,26,7,3,6,-69,-10,-15,-13,11942666578,-0.393555,0.389648,0.881836,11942666578,7.4375,-14.1875,9.375,11942666578,0.00866699,0.284668,0.588135,0.756897,0.393664,0.434254,1.409
11942667317,34,-36,-8,-7,50,9,-21,26,11942666578,-0.393555,0.389648,0.881836,11942666578,7.4375,-14.1875,9.375,11942666578,0.00866699,0.284668,0.588135,0.756897,0.393664,0.434254,1.409
11942688414,-76,21,-5,-37,-27,-7,-30,-44,11942666578,-0.393555,0.389648,0.881836,11942666578,7.4375,-14.1875,9.375,11942666578,0.00866699,0.284668,0.588135,0.756897,0.393664,0.434254,1.409
11942688414,23,-7,5,18,81,20,3,18,11942689104,-0.397461,0.379883,0.860352,11942689104,0.375,-8.375,13.0625,11942689104,0.0106201,0.283508,0.589905,0.75592,0.395755,0.429141,1.41256
11942689847,-17,-15,-1,-7,-37,-3,12,-10,11942689104,-0.397461,0.379883,0.860352,11942689104,0.375,-8.375,13.0625,11942689104,0.0106201,0.283508,0.589905,0.75592,0.395755,0.429141,1.41256
11942689847,-35,1,8,39,-56,-6,-13,-28,11942689104,-0.397461,0.379883,0.860352,11942689104,0.375,-8.375,13.0625,11942689104,0.0106201,0.283508,0.589905,0.75592,0.395755,0.429141,1.41256
11942701865,13,20,-4,-87,-78,1,8,5,11942689104,-0.397461,0.379883,0.860352,11942689104,0.375,-8.375,13.0625,11942689104,0.0106201,0.283508,0.589905,0.75592,0.395755,0.429141,1.41256
11942701865,12,-28,0,62,61,3,-23,-13,11942710238,-0.427734,0.389648,0.871582,11942710238,-1,-7.1875,3.8125,11942710238,0.0116577,0.282593,0.590515,0.755798,0.396178,0.426183,1.41323
11942710841,-11,11,-6,-25,67,7,26,14,11942710238,-0.427734,0.389648,0.871582,11942710238,-1,-7.1875,3.8125,11942710238,0.0116577,0.282593,0.590515,0.755798,0.396178,0.426183,1.41323
11942710841,24,7,13,35,-18,-7,-9,-8,11942710238,-0.427734,0.389648,0.871582,11942710238,-1,-7.1875,3.8125,11942710238,0.0116577,0.282593,0.590515,0.755798,0.396178,0.426183,1.41323
11942725763,6,-12,-9,-23,59,8,5,-4,11942710238,-0.427734,0.389648,0.871582,11942710238,-1,-7.1875,3.8125,11942710238,0.0116577,0.282593,0.590515,0.755798,0.396178,0.426183,1.41323
11942725763,-51,1,-15,-106,-16,8,0,-14,11942726546,-0.415527,0.401367,0.870117,11942726546,-1.8125,-6,-3.25,11942726546,0.0123291,0.281738,0.59021,0.756348,0.395628,0.424243,1.4115
11942727356,42,16,27,45,4,-4,8,21,11942726546,-0.415527,0.401367,0.870117,11942726546,-1.8125,-6,-3.25,11942726546,0.0123291,0.281738,0.59021,0.756348,0.395628,0.424243,1.4115
11942727356,-5,-9,0,5,42,0,-7,-3,11942726546,-0.415527,0.401367,0.870117,11942726546,-1.8125,-6,-3.25,11942726546,0.0123291,0.281738,0.59021,0.756348,0.395628,0.424243,1.4115
11942748180,8,-1,0,-11,-17,4,19,11,11942726546,-0.415527,0.401367,0.870117,11942726546,-1.8125,-6,-3.25,11942726546,0.0123291,0.281738,0.59021,0.756348,0.395628,0.424243,1.4115
11942748180,1,21,-6,-25,-17,-4,-18,-21,11942748994,-0.397949,0.400391,0.855469,11942748994,-2,-3.6875,-9.0625,11942748994,0.0125732,0.281189,0.589172,0.757324,0.394524,0.423646,1.40813
11942749785,51,-29,-13,-23,-31,-3,18,31,11942748994,-0.397949,0.400391,0.855469,11942748994,-2,-3.6875,-9.0625,11942748994,0.0125732,0.281189,0.589172,0.757324,0.394524,0.423646,1.40813
11942749785,-3,-11,-6,5,20,-3,-24,-11,11942748994,-0.397949,0.400391,0.855469,11942748994,-2,-3.6875,-9.0625,11942748994,0.0125732,0.281189,0.589172,0.757324,0.394524,0.423646,1.40813
11942762690,-12,12,4,10,34,10,20,7,11942748994,-0.397949,0.400391,0.855469,11942748994,-2,-3.6875,-9.0625,11942748994,0.0125732,0.281189,0.589172,0.757324,0.394524,0.423646,1.40813
11942762690,-1,-5,-3,21,-47,-12,2,-9,11942763328,-0.38623,0.337891,0.866699,11942763328,-3,-0.875,-7.625,11942763328,0.0119629,0.280396,0.58844,0.75824,0.391858,0.423699,1.40523
11942769519,-10,-5,-8,-25,-23,-1,-21,10,11942763328,-0.38623,0.337891,0.866699,11942763328,-3,-0.875,-7.625,11942763328,0.0119629,0.280396,0.58844,0.75824,0.391858,0.423699,1.40523
11942769519,-9,0,-3,-13,-38,-11,-22,-45,11942763328,-0.38623,0.337891,0.866699,11942763328,-3,-0.875,-7.625,11942763328,0.0119629,0.280396,0.58844,0.75824,0.391858,0.423699,1.40523
11942785812,18,-4,-14,-43,89,13,17,7,11942763328,-0.38623,0.337891,0.866699,11942763328,-3,-0.875,-7.625,11942763328,0.0119629,0.280396,0.58844,0.75824,0.391858,0.423699,1.40523
11942785812,-13,4,22,127,-65,-20,-1,5,11942786609,-0.390625,0.343262,0.862305,11942786609,0.3125,-0.25,-5.0625,11942786609,0.0119019,0.28009,0.58783,0.758789,0.390923,0.423624,1.40324
11942787344,-7,-2,-7,-30,-14,-6,-10,-7,11942786609,-0.390625,0.343262,0.862305,11942786609,0.3125,-0.25,-5.0625,11942786609,0.0119019,0.28009,0.58783,0.758789,0.390923,0.423624,1.40324
11942787344,-1,-7,-6,-32,20,7,3,9,11942786609,-0.390625,0.343262,0.862305,11942786609,0.3125,-0.25,-5.0625,11942786609,0.0119019,0.28009,0.58783,0.758789,0.390923,0.423624,1.40324
11942809608,-5,6,4,19,13,-3,-5,-6,11942786609,-0.390625,0.343262,0.862305,11942786609,0.3125,-0.25,-5.0625,11942786609,0.0119019,0.28009,0.58783,0.758789,0.390923,0.423624,1.40324
11942809608,0,-8,-6,-49,-53,-5,5,3,11942810520,-0.393066,0.383301,0.866699,11942810520,1.375,1.5,-5.875,11942810520,0.012085,0.280334,0.587097,0.759216,0.391208,0.424076,1.40159
11942811285,-15,-2,-6,-16,26,0,-5,-9,11942810520,-0.393066,0.383301,0.866699,11942810520,1.375,1.5,-5.875,11942810520,0.012085,0.280334,0.587097,0.759216,0.391208,0.424076,1.40159
11942811285,7,3,3,24,15,-2,-3,-2,11942810520,-0.393066,0.383301,0.866699,11942810520,1.375,1.5,-5.875,11942810520,0.012085,0.280334,0.587097,0.759216,0.391208,0.424076,1.40159
11942822694,4,-3,5,29,-15,-2,0,-5,11942810520,-0.393066,0.383301,0.866699,11942810520,1.375,1.5,-5.875,11942810520,0.012085,0.280334,0.587097,0.759216,0.391208,0.424076,1.40159
11942822694,-7,1,4,7,4,0,6,3,11942823420,-0.410645,0.410645,0.863281,11942823420,-1.125,0.3125,-9.0625,11942823420,0.012085,0.280518,0.58606,0.76001,0.390941,0.424897,1.39906
11942829357,2,0,-7,-27,-26,-9,-7,-10,11942823420,-0.410645,0.410645,0.863281,11942823420,-1.125,0.3125,-9.0625,11942823420,0.012085,0.280518,0.58606,0.76001,0.390941,0.424897,1.39906
11942829357,-6,0,0,2,2,-8,2,6,11942823420,-0.410645,0.410645,0.863281,11942823420,-1.125,0.3125,-9.0625,11942823420,0.012085,0.280518,0.58606,0.76001,0.390941,0.424897,1.39906
11942845834,2,-3,2,20,2,-11,1,0,11942823420,-0.410645,0.410645,0.863281,11942823420,-1.125,0.3125,-9.0625,11942823420,0.012085,0.280518,0.58606,0.76001,0.390941,0.424897,1.39906
11942845834,-1,-2,-4,-15,0,-3,2,7,11942846530,-0.415039,0.369629,0.833984,11942846530,1.1875,-1.9375,-13.125,11942846530,0.0120239,0.28064,0.58429,0.761353,0.390072,0.426054,1.3945
11942847305,-10,4,-4,-21,-4,-3,-7,-6,11942846530,-0.415039,0.369629,0.833984,11942846530,1.1875,-1.9375,-13.125,11942846530,0.0120239,0.28064,0.58429,0.761353,0.390072,0.426054,1.3945
11942847305,2,-3,3,23,16,-9,0,0,11942846530,-0.415039,0.369629,0.833984,11942846530,1.1875,-1.9375,-13.125,11942846530,0.0120239,0.28064,0.58429,0.761353,0.390072,0.426054,1.3945
11942868355,-4,-4,-1,6,1,-4,1,-3,11942846530,-0.415039,0.369629,0.833984,11942846530,1.1875,-1.9375,-13.125,11942846530,0.0120239,0.28064,0.58429,0.761353,0.390072,0.426054,1.3945
11942868355,-2,0,3,5,-4,-15,3,1,11942869043,-0.414062,0.300293,0.838867,11942869043,1.875,-1.75,-11.375,11942869043,0.0114746,0.280396,0.582642,0.762695,0.387899,0.427219,1.38981
11942869865,3,2,0,-15,-21,-20,-3,4,11942869043,-0.414062,0.300293,0.838867,11942869043,1.875,-1.75,-11.375,11942869043,0.0114746,0.280396,0.582642,0.762695,0.387899,0.427219,1.38981
11942869865,-3,-4,-5,-10,0,-20,-2,-3,11942869043,-0.414062,0.300293,0.838867,11942869043,1.875,-1.75,-11.375,11942869043,0.0114746,0.280396,0.582642,0.762695,0.387899,0.427219,1.38981
11942882641,4,0,4,32,37,1,2,-3,11942869043,-0.414062,0.300293,0.838867,11942869043,1.875,-1.75,-11.375,11942869043,0.0114746,0.280396,0.582642,0.762695,0.387899,0.427219,1.38981
11942882641,-3,2,2,7,-5,18,2,5,11942883431,-0.424805,0.266602,0.855957,11942883431,7.125,-1.3125,-5.8125,11942883431,0.0114746,0.280457,0.581421,0.763611,0.387324,0.427917,1.38665
11942889378,-2,-5,-13,-21,4,28,1,-4,11942883431,-0.424805,0.266602,0.855957,11942883431,7.125,-1.3125,-5.8125,11942883431,0.0114746,0.280457,0.581421,0.763611,0.387324,0.427917,1.38665
11942889378,0,3,8,15,-17,14,2,5,11942883431,-0.424805,0.266602,0.855957,11942883431,7.125,-1.3125,-5.8125,11942883431,0.0114746,0.280457,0.581421,0.763611,0.387324,0.427917,1.38665
11942905871,-3,4,-3,-36,0,16,-3,-4,11942883431,-0.424805,0.266602,0.855957,11942883431,7.125,-1.3125,-5.8125,11942883431,0.0114746,0.280457,0.581421,0.763611,0.387324,0.427917,1.38665
11942905871,-2,-1,3,24,-3,6,-4,-2,11942906555,-0.42334,0.338379,0.84375,11942906555,14.875,-4.6875,-6.0625,11942906555,0.0134888,0.281372,0.579834,0.764404,0.391119,0.427417,1.38371
11942907316,-3,-2,-3,-8,-7,4,-2,-4,11942906555,-0.42334,0.338379,0.84375,11942906555,14.875,-4.6875,-6.0625,11942906555,0.0134888,0.281372,0.579834,0.764404,0.391119,0.427417,1.38371
11942907316,2,-2,-6,-14,7,1,-2,-3,11942906555,-0.42334,0.338379,0.84375,11942906555,14.875,-4.6875,-6.0625,11942906555,0.0134888,0.281372,0.579834,0.764404,0.391119,0.427417,1.38371
11942928443,0,-4,-2,0,-32,2,-5,-2,11942906555,-0.42334,0.338379,0.84375,11942906555,14.875,-4.6875,-6.0625,11942906555,0.0134888,0.281372,0.579834,0.764404,0.391119,0.427417,1.38371
11942928443,-3,-3,-5,-22,16,21,2,-1,11942929096,-0.428711,0.436035,0.839355,11942929096,10.4375,-7.5625,-11.75,11942929096,0.0158081,0.282104,0.577759,0.765686,0.394837,0.426559,1.37934
11942929827,1,0,2,3,-14,-14,-3,-5,11942929096,-0.428711,0.436035,0.839355,11942929096,10.4375,-7.5625,-11.75,11942929096,0.0158081,0.282104,0.577759,0.765686,0.394837,0.426559,1.37934
11942929827,-3,1,-3,7,4,-6,-5,1,11942929096,-0.428711,0.436035,0.839355,11942929096,10.4375,-7.5625,-11.75,11942929096,0.0158081,0.282104,0.577759,0.765686,0.394837,0.426559,1.37934
11942941978,-1,-2,-4,-4,-3,5,2,0,11942929096,-0.428711,0.436035,0.839355,11942929096,10.4375,-7.5625,-11.75,11942929096,0.0158081,0.282104,0.577759,0.765686,0.394837,0.426559,1.37934
11942941978,0,1,-2,-9,-6,-4,1,2,11942950155,-0.416504,0.438965,0.844238,11942950155,-9.8125,-9.75,-11.6875,11942950155,0.015686,0.280396,0.576721,0.76709,0.391287,0.42474,1.37467
11942950849,-4,1,4,13,15,5,-1,-1,11942950155,-0.416504,0.438965,0.844238,11942950155,-9.8125,-9.75,-11.6875,11942950155,0.015686,0.280396,0.576721,0.76709,0.391287,0.42474,1.37467
11942950849,0,0,-1,-4,-4,-1,1,0,11942950155,-0.416504,0.438965,0.844238,11942950155,-9.8125,-9.75,-11.6875,11942950155,0.015686,0.280396,0.576721,0.76709,0.391287,0.42474,1.37467
11942967123,-2,0,2,4,-10,-4,0,1,11942950155,-0.416504,0.438965,0.844238,11942950155,-9.8125,-9.75,-11.6875,11942950155,0.015686,0.280396,0.576721,0.76709,0.391287,0.42474,1.37467
11942967123,-2,-3,-4,-6,5,-3,-1,-2,11942967941,-0.427734,0.349121,0.862793,11942967941,-29,-10,-10.875,11942967941,0.0122681,0.276245,0.57666,0.768677,0.37911,0.423043,1.36948
11942968731,-3,-1,0,6,-6,-1,-2,-5,11942967941,-0.427734,0.349121,0.862793,11942967941,-29,-10,-10.875,11942967941,0.0122681,0.276245,0.57666,0.768677,0.37911,0.423043,1.36948
11942968731,0,-1,-2,-6,1,3,-1,-1,11942967941,-0.427734,0.349121,0.862793,11942967941,-29,-10,-10.875,11942967941,0.0122681,0.276245,0.57666,0.768677,0.37911,0.423043,1.36948
11942988650,0,-1,0,5,-11,-2,-2,-2,11942967941,-0.427734,0.349121,0.862793,11942967941,-29,-10,-10.875,11942967941,0.0122681,0.276245,0.57666,0.768677,0.37911,0.423043,1.36948
11942988650,-1,-1,-3,-2,-3,-6,-1,1,11942989504,-0.422363,0.291016,0.89209,11942989504,-27.9375,-11.8125,-12.8125,11942989504,0.00866699,0.271545,0.576233,0.770752,0.365609,0.42092,1.36282
11942990262,-5,-1,-1,-2,4,-2,-1,-3,11942989504,-0.422363,0.291016,0.89209,11942989504,-27.9375,-11.8125,-12.8125,11942989504,0.00866699,0.271545,0.576233,0.770752,0.365609,0.42092,1.36282
11942990262,0,-2,0,-2,-1,6,-1,0,11942989504,-0.422363,0.291016,0.89209,11942989504,-27.9375,-11.8125,-12.8125,11942989504,0.00866699,0.271545,0.576233,0.770752,0.365609,0.42092,1.36282
11943001893,0,-1,0,5,-1,1,2,-1,11942989504,-0.422363,0.291016,0.89209,11942989504,-27.9375,-11.8125,-12.8125,11942989504,0.00866699,0.271545,0.576233,0.770752,0.365609,0.42092,1.36282
11943001893,1,-1,-1,-6,0,12,0,-1,11943009995,-0.400391,0.323242,0.911133,11943009995,-5.75,-6.6875,-13.75,11943009995,0.00799561,0.269714,0.574707,0.772522,0.360795,0.419748,1.35678
11943010777,-3,-2,-3,1,-9,-42,-4,-6,11943009995,-0.400391,0.323242,0.911133,11943009995,-5.75,-6.6875,-13.75,11943009995,0.00799561,0.269714,0.574707,0.772522,0.360795,0.419748,1.35678
11943010777,-3,-1,2,-1,-7,20,-1,9,11943009995,-0.400391,0.323242,0.911133,11943009995,-5.75,-6.6875,-13.75,11943009995,0.00799561,0.269714,0.574707,0.772522,0.360795,0.419748,1.35678
11943025612,7,-20,0,6,31,22,2,-44,11943009995,-0.400391,0.323242,0.911133,11943009995,-5.75,-6.6875,-13.75,11943009995,0.00799561,0.269714,0.574707,0.772522,0.360795,0.419748,1.35678
11943025612,20,13,-8,-9,-1,-16,-2,56,11943026425,-0.402832,0.449707,0.91748,11943026425,-12.75,-8.5,-12.3125,11943026425,0.0078125,0.2677,0.573853,0.773865,0.356851,0.417374,1.35238
11943027220,-14,-2,3,3,17,42,-1,-57,11943026425,-0.402832,0.449707,0.91748,11943026425,-12.75,-8.5,-12.3125,11943026425,0.0078125,0.2677,0.573853,0.773865,0.356851,0.417374,1.35238
11943027220,-26,6,5,4,-1,-10,6,12,11943026425,-0.402832,0.449707,0.91748,11943026425,-12.75,-8.5,-12.3125,11943026425,0.0078125,0.2677,0.573853,0.773865,0.356851,0.417374,1.35238
11943048196,6,-10,-15,-13,-60,-19,1,-8,11943026425,-0.402832,0.449707,0.91748,11943026425,-12.75,-8.5,-12.3125,11943026425,0.0078125,0.2677,0.573853,0.773865,0.356851,0.417374,1.35238
11943048196,-2,-7,-6,-6,14,-21,-3,-2,11943048981,-0.353516,0.507324,0.887695,11943048981,-46.3125,-8.125,-5.1875,11943048981,0.0043335,0.262634,0.575623,0.774292,0.344265,0.413397,1.35131
11943049807,3,-4,-5,-2,-6,7,-1,35,11943048981,-0.353516,0.507324,0.887695,11943048981,-46.3125,-8.125,-5.1875,11943048981,0.0043335,0.262634,0.575623,0.774292,0.344265,0.413397,1.35131
11943049807,6,1,1,1,8,12,-4,-5,11943048981,-0.353516,0.507324,0.887695,11943048981,-46.3125,-8.125,-5.1875,11943048981,0.0043335,0.262634,0.575623,0.774292,0.344265,0.413397,1.35131
11943061826,-5,-2,6,6,3,15,-5,-27,11943048981,-0.353516,0.507324,0.887695,11943048981,-46.3125,-8.125,-5.1875,11943048981,0.0043335,0.262634,0.575623,0.774292,0.344265,0.413397,1.35131
11943061826,0,-7,5,3,-11,-38,6,59,11943070003,-0.330566,0.381836,0.852051,11943070003,-44.625,-7.3125,-4.5625,11943070003,0.00012207,0.257202,0.577332,0.774902,0.329963,0.40985,1.34976
11943070785,-17,11,4,3,-1,-3,-4,-30,11943070003,-0.330566,0.381836,0.852051,11943070003,-44.625,-7.3125,-4.5625,11943070003,0.00012207,0.257202,0.577332,0.774902,0.329963,0.40985,1.34976
11943070785,6,-14,-9,-8,-5,-5,-5,42,11943070003,-0.330566,0.381836,0.852051,11943070003,-44.625,-7.3125,-4.5625,11943070003,0.00012207,0.257202,0.577332,0.774902,0.329963,0.40985,1.34976
11943085647,-8,11,11,8,17,16,-4,-54,11943070003,-0.330566,0.381836,0.852051,11943070003,-44.625,-7.3125,-4.5625,11943070003,0.00012207,0.257202,0.577332,0.774902,0.329963,0.40985,1.34976
11943085647,-22,-16,-12,-9,-33,-31,-5,-74,11943086451,-0.433594,0.0986328,0.798828,11943086451,-36.9375,-8.625,-15.1875,11943086451,-0.00665283,0.251892,0.576538,0.777161,0.310478,0.410636,1.34157
11943087254,-11,20,-4,-3,-2,-26,-9,23,11943086451,-0.433594,0.0986328,0.798828,11943086451,-36.9375,-8.625,-15.1875,11943086451,-0.00665283,0.251892,0.576538,0.777161,0.310478,0.410636,1.34157
11943087254,2,-19,-3,-2,-2,10,11,49,11943086451,-0.433594,0.0986328,0.798828,11943086451,-36.9375,-8.625,-15.1875,11943086451,-0.00665283,0.251892,0.576538,0.777161,0.310478,0.410636,1.34157
11943108178,10,-2,5,1,13,-2,6,-61,11943086451,-0.433594,0.0986328,0.798828,11943086451,-36.9375,-8.625,-15.1875,11943086451,-0.00665283,0.251892,0.576538,0.777161,0.310478,0.410636,1.34157
11943108178,-25,-30,-24,-8,17,33,-8,-31,11943108787,-0.46582,0.13623,0.919922,11943108787,-43.1875,-20.1875,-24.3125,11943108787,-0.0131836,0.244324,0.57489,0.780762,0.287547,0.407892,1.3292
11943114340,9,-11,0,2,-15,-4,6,54,11943108787,-0.46582,0.13623,0.919922,11943108787,-43.1875,-20.1875,-24.3125,11943108787,-0.0131836,0.244324,0.57489,0.780762,0.287547,0.407892,1.3292
11943114340,-44,-3,-8,-6,-2,-24,-7,-1,11943108787,-0.46582,0.13623,0.919922,11943108787,-43.1875,-20.1875,-24.3125,11943108787,-0.0131836,0.244324,0.57489,0.780762,0.287547,0.407892,1.3292
11943122032,9,-24,-8,-1,-11,-14,-8,67,11943108787,-0.46582,0.13623,0.919922,11943108787,-43.1875,-20.1875,-24.3125,11943108787,-0.0131836,0.244324,0.57489,0.780762,0.287547,0.407892,1.3292
11943122032,-3,53,35,3,3,3,-8,-44,11943130120,-0.40332,0.171875,1.07227,11943130120,-17.8125,-30,-26.6875,11943130120,-0.0145264,0.237,0.572083,0.785034,0.272937,0.399248,1.315
11943130897,12,62,12,1,3,13,12,9,11943130120,-0.40332,0.171875,1.07227,11943130120,-17.8125,-30,-26.6875,11943130120,-0.0145264,0.237,0.572083,0.785034,0.272937,0.399248,1.315
11943130897,40,-4,-3,4,0,-8,-1,69,11943130120,-0.40332,0.171875,1.07227,11943130120,-17.8125,-30,-26.6875,11943130120,-0.0145264,0.237,0.572083,0.785034,0.272937,0.399248,1.315
11943145901,-11,3,-4,-4,6,-2,-5,-12,11943130120,-0.40332,0.171875,1.07227,11943130120,-17.8125,-30,-26.6875,11943130120,-0.0145264,0.237,0.572083,0.785034,0.272937,0.399248,1.315
11943145901,8,-23,-6,1,-6,12,-1,-6,11943146616,-0.45752,-0.0131836,0.974609,11943146616,-7.5625,-34.6875,-16.5625,11943146616,-0.0157471,0.230103,0.569763,0.788696,0.259633,0.390776,1.30276
11943147381,-25,-34,-11,-2,0,-4,-11,7,11943146616,-0.45752,-0.0131836,0.974609,11943146616,-7.5625,-34.6875,-16.5625,11943146616,-0.0157471,0.230103,0.569763,0.788696,0.259633,0.390776,1.30276
11943147381,13,23,9,3,15,22,6,-51,11943146616,-0.45752,-0.0131836,0.974609,11943146616,-7.5625,-34.6875,-16.5625,11943146616,-0.0157471,0.230103,0.569763,0.788696,0.259633,0.390776,1.30276
11943168207,-17,-8,1,-5,-20,-41,-5,19,11943146616,-0.45752,-0.0131836,0.974609,11943146616,-7.5625,-34.6875,-16.5625,11943146616,-0.0157471,0.230103,0.569763,0.788696,0.259633,0.390776,1.30276
11943168207,16,8,1,3,1,13,2,31,11943169061,-0.611328,-0.0410156,0.978516,11943169061,18.0625,-42,-16.375,11943169061,-0.0140381,0.226013,0.56604,0.792603,0.254657,0.383501,1.28993
11943169820,42,-16,0,-1,-1,3,3,1,11943169061,-0.611328,-0.0410156,0.978516,11943169061,18.0625,-42,-16.375,11943169061,-0.0140381,0.226013,0.56604,0.792603,0.254657,0.383501,1.28993
11943169820,-25,23,11,0,4,4,-2,-99,11943169061,-0.611328,-0.0410156,0.978516,11943169061,18.0625,-42,-16.375,11943169061,-0.0140381,0.226013,0.56604,0.792603,0.254657,0.383501,1.28993
11943182048,-12,8,-11,-5,-7,-10,0,34,11943169061,-0.611328,-0.0410156,0.978516,11943169061,18.0625,-42,-16.375,11943169061,-0.0140381,0.226013,0.56604,0.792603,0.254657,0.383501,1.28993
11943182048,27,-2,5,8,5,12,16,120,11943190048,-0.672363,0.242188,0.935547,11943190048,47.375,-62.75,-33.9375,11943190048,-0.00476074,0.224426,0.558838,0.798279,0.264174,0.372162,1.27148
11943190778,-6,-14,-13,-8,4,-1,6,41,11943190048,-0.672363,0.242188,0.935547,11943190048,47.375,-62.75,-33.9375,11943190048,-0.00476074,0.224426,0.558838,0.798279,0.264174,0.372162,1.27148
11943190778,-38,-50,-6,-3,-7,-7,-25,-111,11943190048,-0.672363,0.242188,0.935547,11943190048,47.375,-62.75,-33.9375,11943190048,-0.00476074,0.224426,0.558838,0.798279,0.264174,0.372162,1.27148
11943205842,38,45,3,3,-5,2,-3,6,11943190048,-0.672363,0.242188,0.935547,11943190048,47.375,-62.75,-33.9375,11943190048,-0.00476074,0.224426,0.558838,0.798279,0.264174,0.372162,1.27148
11943205842,12,48,13,2,-8,-13,17,82,11943206576,-0.498047,0.486816,0.963867,11943206576,51.25,-72,-53.5,11943206576,0.00854492,0.221741,0.549255,0.805603,0.27807,0.355312,1.24697
11943207258,-18,-25,0,5,13,2,-12,-97,11943206576,-0.498047,0.486816,0.963867,11943206576,51.25,-72,-53.5,11943206576,0.00854492,0.221741,0.549255,0.805603,0.27807,0.355312,1.24697
11943207258,57,19,-6,-5,-12,-2,14,127,11943206576,-0.498047,0.486816,0.963867,11943206576,51.25,-72,-53.5,11943206576,0.00854492,0.221741,0.549255,0.805603,0.27807,0.355312,1.24697
11943228383,-29,-44,-6,-3,6,7,-10,-39,11943206576,-0.498047,0.486816,0.963867,11943206576,51.25,-72,-53.5,11943206576,0.00854492,0.221741,0.549255,0.805603,0.27807,0.355312,1.24697
11943228383,0,4,3,0,-3,3,4,20,11943229056,-0.334473,0.641113,0.912109,11943229056,7.75,-70.3125,-63.125,11943229056,0.0177002,0.214966,0.540222,0.813354,0.280258,0.3369,1.22046
11943229810,-3,-21,-5,-3,-5,-5,5,43,11943229056,-0.334473,0.641113,0.912109,11943229056,7.75,-70.3125,-63.125,11943229056,0.0177002,0.214966,0.540222,0.813354,0.280258,0.3369,1.22046
11943229810,27,21,3,3,-2,-10,-4,2,11943229056,-0.334473,0.641113,0.912109,11943229056,7.75,-70.3125,-63.125,11943229056,0.0177002,0.214966,0.540222,0.813354,0.280258,0.3369,1.22046
11943242031,-16,-3,0,-2,-3,-3,0,123,11943229056,-0.334473,0.641113,0.912109,11943229056,7.75,-70.3125,-63.125,11943229056,0.0177002,0.214966,0.540222,0.813354,0.280258,0.3369,1.22046
11943242031,-13,-12,-6,0,6,-5,-1,-56,11943250148,-0.175293,0.58252,0.88623,11943250148,-62.1875,-56.6875,-82.625,11943250148,0.015564,0.202087,0.531189,0.822571,0.256062,0.321434,1.1884
11943250874,24,1,0,-1,-1,7,-2,-16,11943250148,-0.175293,0.58252,0.88623,11943250148,-62.1875,-56.6875,-82.625,11943250148,0.015564,0.202087,0.531189,0.822571,0.256062,0.321434,1.1884
11943250874,9,5,2,-1,-2,-15,-10,-40,11943250148,-0.175293,0.58252,0.88623,11943250148,-62.1875,-56.6875,-82.625,11943250148,0.015564,0.202087,0.531189,0.822571,0.256062,0.321434,1.1884
11943265208,0,1,-6,-2,1,-1,-1,-37,11943250148,-0.175293,0.58252,0.88623,11943250148,-62.1875,-56.6875,-82.625,11943250148,0.015564,0.202087,0.531189,0.822571,0.256062,0.321434,1.1884
11943265208,71,9,-1,0,5,29,-1,-12,11943265829,-0.154785,0.455078,0.920898,11943265829,-108.938,-40.9375,-98.1875,11943265829,0.00109863,0.186401,0.520813,0.833069,0.207594,0.314589,1.15049
11943271902,-53,-1,-4,-7,-15,-22,6,72,11943265829,-0.154785,0.455078,0.920898,11943265829,-108.938,-40.9375,-98.1875,11943265829,0.00109863,0.186401,0.520813,0.833069,0.207594,0.314589,1.15049
11943271902,-45,-19,-12,-5,-4,-5,-6,-37,11943265829,-0.154785,0.455078,0.920898,11943265829,-108.938,-40.9375,-98.1875,11943265829,0.00109863,0.186401,0.520813,0.833069,0.207594,0.314589,1.15049
11943288289,-26,4,-3,-1,1,-17,-12,-91,11943265829,-0.154785,0.455078,0.920898,11943265829,-108.938,-40.9375,-98.1875,11943265829,0.00109863,0.186401,0.520813,0.833069,0.207594,0.314589,1.15049
11943288289,-35,-8,-2,-7,-8,-26,-26,-54,11943289088,-0.123535,0.303223,0.885254,11943289088,-137.562,-30.75,-116.312,11943289088,-0.019165,0.169189,0.508179,0.844177,0.147122,0.310075,1.10667
11943289819,60,14,16,12,15,26,24,21,11943289088,-0.123535,0.303223,0.885254,11943289088,-137.562,-30.75,-116.312,11943289088,-0.019165,0.169189,0.508179,0.844177,0.147122,0.310075,1.10667
11943289819,-23,-33,-17,-3,4,12,1,-48,11943289088,-0.123535,0.303223,0.885254,11943289088,-137.562,-30.75,-116.312,11943289088,-0.019165,0.169189,0.508179,0.844177,0.147122,0.310075,1.10667
11943301903,16,61,20,3,-2,-7,-1,-5,11943289088,-0.123535,0.303223,0.885254,11943289088,-137.562,-30.75,-116.312,11943289088,-0.019165,0.169189,0.508179,0.844177,0.147122,0.310075,1.10667
11943301903,40,-4,3,0,0,2,0,68,11943310180,-0.166992,0.149414,0.958008,11943310180,-147.562,-21.8125,-145.625,11943310180,-0.0428467,0.1521,0.490906,0.856689,0.0797419,0.307494,1.05295
11943310897,-15,-22,-13,-8,-1,20,1,38,11943310180,-0.166992,0.149414,0.958008,11943310180,-147.562,-21.8125,-145.625,11943310180,-0.0428467,0.1521,0.490906,0.856689,0.0797419,0.307494,1.05295
11943310897,-33,10,9,7,8,14,17,-25,11943310180,-0.166992,0.149414,0.958008,11943310180,-147.562,-21.8125,-145.625,11943310180,-0.0428467,0.1521,0.490906,0.856689,0.0797419,0.307494,1.05295
11943325107,19,-3,-6,-2,-9,-15,-7,31,11943310180,-0.166992,0.149414,0.958008,11943310180,-147.562,-21.8125,-145.625,11943310180,-0.0428467,0.1521,0.490906,0.856689,0.0797419,0.307494,1.05295
11943325107,-55,-11,-8,2,5,7,4,-68,11943325864,-0.157715,-0.0234375,0.980469,11943325864,-115.375,-16.9375,-164.312,11943325864,-0.0628662,0.137939,0.469299,0.869873,0.0210636,0.30363,0.992633
11943331847,-20,-4,0,-5,-8,-18,-29,-100,11943325864,-0.157715,-0.0234375,0.980469,11943325864,-115.375,-16.9375,-164.312,11943325864,-0.0628662,0.137939,0.469299,0.869873,0.0210636,0.30363,0.992633
11943331847,-3,-5,-5,-3,-2,9,9,103,11943325864,-0.157715,-0.0234375,0.980469,11943325864,-115.375,-16.9375,-164.312,11943325864,-0.0628662,0.137939,0.469299,0.869873,0.0210636,0.30363,0.992633
11943348423,-22,-30,-9,-2,7,12,-5,29,11943325864,-0.157715,-0.0234375,0.980469,11943325864,-115.375,-16.9375,-164.312,11943325864,-0.0628662,0.137939,0.469299,0.869873,0.0210636,0.30363,0.992633
11943348423,10,20,4,-2,-5,-20,-11,49,11943349063,-0.0922852,0.0258789,0.947266,11943349063,-95.625,-18.125,-175.938,11943349063,-0.0797119,0.124878,0.444885,0.88324,-0.0310502,0.295815,0.928561
11943349827,11,-7,-3,6,12,32,24,27,11943349063,-0.0922852,0.0258789,0.947266,11943349063,-95.625,-18.125,-175.938,11943349063,-0.0797119,0.124878,0.444885,0.88324,-0.0310502,0.295815,0.928561
11943349827,26,3,1,-2,-7,-29,-18,-31,11943349063,-0.0922852,0.0258789,0.947266,11943349063,-95.625,-18.125,-175.938,11943349063,-0.0797119,0.124878,0.444885,0.88324,-0.0310502,0.295815,0.928561
11943370889,26,6,1,2,-5,-9,4,19,11943349063,-0.0922852,0.0258789,0.947266,11943349063,-95.625,-18.125,-175.938,11943349063,-0.0797119,0.124878,0.444885,0.88324,-0.0310502,0.295815,0.928561
11943370889,-4,-40,-28,-12,-7,-6,-11,30,11943371584,-0.118164,0.0336914,0.910156,11943371584,-93.75,-9.75,-173.125,11943371584,-0.0966187,0.113403,0.420166,0.895081,-0.0810961,0.288174,0.865915
11943372309,52,-3,31,11,7,0,-6,7,11943371584,-0.118164,0.0336914,0.910156,11943371584,-93.75,-9.75,-173.125,11943371584,-0.0966187,0.113403,0.420166,0.895081,-0.0810961,0.288174,0.865915
11943372309,35,59,18,1,4,-10,-12,16,11943371584,-0.118164,0.0336914,0.910156,11943371584,-93.75,-9.75,-173.125,11943371584,-0.0966187,0.113403,0.420166,0.895081,-0.0810961,0.288174,0.865915
11943385114,-23,-22,-5,2,9,27,27,20,11943371584,-0.118164,0.0336914,0.910156,11943371584,-93.75,-9.75,-173.125,11943371584,-0.0966187,0.113403,0.420166,0.895081,-0.0810961,0.288174,0.865915
11943385114,73,-25,5,5,0,12,27,44,11943385887,-0.20752,-0.0112305,0.917969,11943385887,-111.875,5.5625,-161.562,11943385887,-0.117249,0.103271,0.396851,0.904419,-0.135952,0.28365,0.807447
11943391885,-19,-6,-22,-8,-13,-30,-5,73,11943385887,-0.20752,-0.0112305,0.917969,11943385887,-111.875,5.5625,-161.562,11943385887,-0.117249,0.103271,0.396851,0.904419,-0.135952,0.28365,0.807447
11943391885,-26,-26,-15,1,6,10,-10,17,11943385887,-0.20752,-0.0112305,0.917969,11943385887,-111.875,5.5625,-161.562,11943385887,-0.117249,0.103271,0.396851,0.904419,-0.135952,0.28365,0.807447
11943408387,13,3,2,-3,-6,-11,29,98,11943385887,-0.20752,-0.0112305,0.917969,11943385887,-111.875,5.5625,-161.562,11943385887,-0.117249,0.103271,0.396851,0.904419,-0.135952,0.28365,0.807447
11943408387,-5,18,9,1,-3,-9,18,23,11943409050,-0.283691,-0.212402,0.870605,11943409050,-107.625,11.9375,-143.312,11943409050,-0.137756,0.0947266,0.375732,0.911499,-0.188341,0.279844,0.755344
11943409845,-41,-4,7,4,1,32,-5,-67,11943409050,-0.283691,-0.212402,0.870605,11943409050,-107.625,11.9375,-143.312,11943409050,-0.137756,0.0947266,0.375732,0.911499,-0.188341,0.279844,0.755344
11943409845,19,-17,0,-5,-14,-81,-3,33,11943409050,-0.283691,-0.212402,0.870605,11943409050,-107.625,11.9375,-143.312,11943409050,-0.137756,0.0947266,0.375732,0.911499,-0.188341,0.279844,0.755344
11943430888,15,21,-4,-2,-1,21,19,32,11943409050,-0.283691,-0.212402,0.870605,11943409050,-107.625,11.9375,-143.312,11943409050,-0.137756,0.0947266,0.375732,0.911499,-0.188341,0.279844,0.755344
11943430888,12,-21,-9,-2,4,5,-10,17,11943431557,-0.312988,-0.362793,0.84668,11943431557,-93.5,4.0625,-131.312,11943431557,-0.155518,0.0860596,0.356079,0.917358,-0.234744,0.271989,0.708192
11943432298,-21,14,2,-4,-2,8,0,-27,11943431557,-0.312988,-0.362793,0.84668,11943431557,-93.5,4.0625,-131.312,11943431557,-0.155518,0.0860596,0.356079,0.917358,-0.234744,0.271989,0.708192
11943432298,-13,-3,1,5,10,35,5,-72,11943431557,-0.312988,-0.362793,0.84668,11943431557,-93.5,4.0625,-131.312,11943431557,-0.155518,0.0860596,0.356079,0.917358,-0.234744,0.271989,0.708192
11943445220,13,25,8,6,5,-5,4,23,11943431557,-0.312988,-0.362793,0.84668,11943431557,-93.5,4.0625,-131.312,11943431557,-0.155518,0.0860596,0.356079,0.917358,-0.234744,0.271989,0.708192
11943445220,-61,-7,-3,-2,1,13,1,-87,11943445845,-0.356934,-0.412598,0.839355,11943445845,-65.5625,-11.25,-120.062,11943445845,-0.167664,0.0770874,0.338013,0.922852,-0.269437,0.258494,0.666933
11943452013,2,12,0,-1,0,-9,-14,-29,11943445845,-0.356934,-0.412598,0.839355,11943445845,-65.5625,-11.25,-120.062,11943445845,-0.167664,0.0770874,0.338013,0.922852,-0.269437,0.258494,0.666933
11943452013,-6,-4,-1,-7,-6,4,-5,44,11943445845,-0.356934,-0.412598,0.839355,11943445845,-65.5625,-11.25,-120.062,11943445845,-0.167664,0.0770874,0.338013,0.922852,-0.269437,0.258494,0.666933
11943468387,-18,-8,-1,-3,-2,-3,-14,-47,11943445845,-0.356934,-0.412598,0.839355,11943445845,-65.5625,-11.25,-120.062,11943445845,-0.167664,0.0770874,0.338013,0.922852,-0.269437,0.258494,0.666933
11943468387,-18,7,3,2,1,10,-8,-28,11943469085,-0.322754,-0.378418,0.816895,11943469085,-42.5625,-26.0625,-106.688,11943469085,-0.174805,0.0674438,0.322083,0.927979,-0.293477,0.240075,0.632482
11943469813,12,12,-4,2,2,1,4,11,11943469085,-0.322754,-0.378418,0.816895,11943469085,-42.5625,-26.0625,-106.688,11943469085,-0.174805,0.0674438,0.322083,0.927979,-0.293477,0.240075,0.632482
11943469813,4,-10,-4,-2,-3,-5,1,-2,11943469085,-0.322754,-0.378418,0.816895,11943469085,-42.5625,-26.0625,-106.688,11943469085,-0.174805,0.0674438,0.322083,0.927979,-0.293477,0.240075,0.632482
11943492165,6,-8,-1,-3,-4,-1,-10,-1,11943469085,-0.322754,-0.378418,0.816895,11943469085,-42.5625,-26.0625,-106.688,11943469085,-0.174805,0.0674438,0.322083,0.927979,-0.293477,0.240075,0.632482
11943492165,-15,8,-7,-9,-6,-15,-14,-20,11943492972,-0.257812,-0.338867,0.808105,11943492972,-36.6875,-33,-86.8125,11943492972,-0.180908,0.0578003,0.309326,0.931763,-0.31405,0.221437,0.605819
11943493812,16,-10,-6,-6,-2,-12,-2,6,11943492972,-0.257812,-0.338867,0.808105,11943492972,-36.6875,-33,-86.8125,11943492972,-0.180908,0.0578003,0.309326,0.931763,-0.31405,0.221437,0.605819
11943493812,11,-2,2,4,3,18,8,2,11943492972,-0.257812,-0.338867,0.808105,11943492972,-36.6875,-33,-86.8125,11943492972,-0.180908,0.0578003,0.309326,0.931763,-0.31405,0.221437,0.605819
11943513299,-41,5,-4,-2,1,3,-11,-74,11943492972,-0.257812,-0.338867,0.808105,11943492972,-36.6875,-33,-86.8125,11943492972,-0.180908,0.0578003,0.309326,0.931763,-0.31405,0.221437,0.605819
11943513299,8,-10,3,1,2,6,-4,-21,11943514097,-0.20459,-0.342773,0.869141,11943514097,-29.125,-31.9375,-61.75,11943514097,-0.185059,0.0490723,0.300537,0.934326,-0.328937,0.204352,0.588352
11943514820,-27,-4,-6,-8,-6,-25,-18,-37,11943514097,-0.20459,-0.342773,0.869141,11943514097,-29.125,-31.9375,-61.75,11943514097,-0.185059,0.0490723,0.300537,0.934326,-0.328937,0.204352,0.588352
11943514820,-28,-7,-10,-7,-8,7,-2,2,11943514097,-0.20459,-0.342773,0.869141,11943514097,-29.125,-31.9375,-61.75,11943514097,-0.185059,0.0490723,0.300537,0.934326,-0.328937,0.204352,0.588352
11943528155,-14,-8,-5,-7,-2,0,-4,-38,11943514097,-0.20459,-0.342773,0.869141,11943514097,-29.125,-31.9375,-61.75,11943514097,-0.185059,0.0490723,0.300537,0.934326,-0.328937,0.204352,0.588352
11943528155,-19,-5,-2,-3,2,-4,1,44,11943528976,-0.158203,-0.371094,0.904297,11943528976,-17.75,-19.5625,-35.875,11943528976,-0.187683,0.0432739,0.295349,0.93573,-0.33826,0.193046,0.578362
11943529788,7,10,-2,-1,-5,1,5,-15,11943528976,-0.158203,-0.371094,0.904297,11943528976,-17.75,-19.5625,-35.875,11943528976,-0.187683,0.0432739,0.295349,0.93573,-0.33826,0.193046,0.578362
11943529788,18,-4,-2,2,4,8,5,23,11943528976,-0.158203,-0.371094,0.904297,11943528976,-17.75,-19.5625,-35.875,11943528976,-0.187683,0.0432739,0.295349,0.93573,-0.33826,0.193046,0.578362
11943550887,-7,-15,-5,-5,-8,-8,-13,-61,11943528976,-0.158203,-0.371094,0.904297,11943528976,-17.75,-19.5625,-35.875,11943528976,-0.187683,0.0432739,0.295349,0.93573,-0.33826,0.193046,0.578362
11943550887,-10,11,2,-3,-3,-9,-6,-21,11943551588,-0.164062,-0.37207,0.939941,11943551588,-0.875,-7.5625,-20.3125,11943551588,-0.187927,0.0408936,0.292175,0.936768,-0.340599,0.187528,0.572263
11943552329,8,-2,-2,-5,-6,-6,-10,2,11943551588,-0.164062,-0.37207,0.939941,11943551588,-0.875,-7.5625,-20.3125,11943551588,-0.187927,0.0408936,0.292175,0.936768,-0.340599,0.187528,0.572263
11943552329,-4,5,1,2,-1,-2,2,70,11943551588,-0.164062,-0.37207,0.939941,11943551588,-0.875,-7.5625,-20.3125,11943551588,-0.187927,0.0408936,0.292175,0.936768,-0.340599,0.187528,0.572263
11943564607,8,-7,1,1,1,4,-4,-24,11943551588,-0.164062,-0.37207,0.939941,11943551588,-0.875,-7.5625,-20.3125,11943551588,-0.187927,0.0408936,0.292175,0.936768,-0.340599,0.187528,0.572263
11943564607,-3,13,-2,-3,-3,1,-10,-103,11943572740,-0.210938,-0.365234,0.933105,11943572740,5.375,-1.5625,-5.8125,11943572740,-0.187439,0.0408325,0.291199,0.937195,-0.339858,0.186784,0.57033
11943573414,17,-2,0,1,3,-2,13,114,11943572740,-0.210938,-0.365234,0.933105,11943572740,5.375,-1.5625,-5.8125,11943572740,-0.187439,0.0408325,0.291199,0.937195,-0.339858,0.186784,0.57033
11943573414,8,3,-1,-3,-3,5,0,-67,11943572740,-0.210938,-0.365234,0.933105,11943572740,5.375,-1.5625,-5.8125,11943572740,-0.187439,0.0408325,0.291199,0.937195,-0.339858,0.186784,0.57033
11943588462,17,2,-4,-4,-4,0,-3,76,11943572740,-0.210938,-0.365234,0.933105,11943572740,5.375,-1.5625,-5.8125,11943572740,-0.187439,0.0408325,0.291199,0.937195,-0.339858,0.186784,0.57033
11943588462,-17,-7,-1,1,-2,-4,-3,-8,11943588984,-0.222656,-0.357422,0.959961,11943588984,3.125,0.8125,0.3125,11943588984,-0.187256,0.0414429,0.291199,0.937195,-0.339175,0.18784,0.570202
11943589786,-1,-4,-6,0,3,-2,-1,23,11943588984,-0.222656,-0.357422,0.959961,11943588984,3.125,0.8125,0.3125,11943588984,-0.187256,0.0414429,0.291199,0.937195,-0.339175,0.18784,0.570202
11943589786,20,20,4,-1,-4,-6,-4,-25,11943588984,-0.222656,-0.357422,0.959961,11943588984,3.125,0.8125,0.3125,11943588984,-0.187256,0.0414429,0.291199,0.937195,-0.339175,0.18784,0.570202
11943610907,-6,-7,2,3,2,-3,-15,21,11943588984,-0.222656,-0.357422,0.959961,11943588984,3.125,0.8125,0.3125,11943588984,-0.187256,0.0414429,0.291199,0.937195,-0.339175,0.18784,0.570202
11943610907,-15,-6,-2,-1,2,3,3,-26,11943611551,-0.214355,-0.382324,0.972656,11943611551,6.6875,0.375,3.875,11943611551,-0.186646,0.0419922,0.291748,0.937134,-0.337579,0.18873,0.571324
11943612299,5,11,3,1,-2,-4,6,20,11943611551,-0.214355,-0.382324,0.972656,11943611551,6.6875,0.375,3.875,11943611551,-0.186646,0.0419922,0.291748,0.937134,-0.337579,0.18873,0.571324
11943612299,6,-7,-1,0,5,14,8,10,11943611551,-0.214355,-0.382324,0.972656,11943611551,6.6875,0.375,3.875,11943611551,-0.186646,0.0419922,0.291748,0.937134,-0.337579,0.18873,0.571324
11943624998,6,2,1,1,-2,-5,0,-16,11943611551,-0.214355,-0.382324,0.972656,11943611551,6.6875,0.375,3.875,11943611551,-0.186646,0.0419922,0.291748,0.937134,-0.337579,0.18873,0.571324
11943624998,-3,7,3,2,-2,-2,8,70,11943625834,-0.212402,-0.37793,0.97168,11943625834,12.8125,-0.4375,2.8125,11943625834,-0.184998,0.0427246,0.292114,0.937317,-0.333865,0.189302,0.572194
11943631833,-1,-4,-2,-3,-2,-1,-2,-44,11943625834,-0.212402,-0.37793,0.97168,11943625834,12.8125,-0.4375,2.8125,11943625834,-0.184998,0.0427246,0.292114,0.937317,-0.333865,0.189302,0.572194
11943631833,-5,0,-4,-5,-4,3,3,24,11943625834,-0.212402,-0.37793,0.97168,11943625834,12.8125,-0.4375,2.8125,11943625834,-0.184998,0.0427246,0.292114,0.937317,-0.333865,0.189302,0.572194
11943648222,7,-4,-1,-2,0,-8,-4,-22,11943625834,-0.212402,-0.37793,0.97168,11943625834,12.8125,-0.4375,2.8125,11943625834,-0.184998,0.0427246,0.292114,0.937317,-0.333865,0.189302,0.572194
11943648222,-5,-2,-1,-3,-4,1,-4,-20,11943649020,-0.193359,-0.314453,0.975098,11943649020,15.5,1.1875,3.3125,11943649020,-0.182312,0.0438232,0.292542,0.937683,-0.327902,0.189993,0.573297
11943649811,3,0,-1,-3,-7,-3,-2,-8,11943649020,-0.193359,-0.314453,0.975098,11943649020,15.5,1.1875,3.3125,11943649020,-0.182312,0.0438232,0.292542,0.937683,-0.327902,0.189993,0.573297
11943649811,-24,-7,0,-2,-2,-5,-6,-16,11943649020,-0.193359,-0.314453,0.975098,11943649020,15.5,1.1875,3.3125,11943649020,-0.182312,0.0438232,0.292542,0.937683,-0.327902,0.189993,0.573297
11943670641,16,1,0,0,-2,-5,-2,32,11943649020,-0.193359,-0.314453,0.975098,11943649020,15.5,1.1875,3.3125,11943649020,-0.182312,0.0438232,0.292542,0.937683,-0.327902,0.189993,0.573297
11943670641,11,-1,-1,1,0,3,-4,48,11943671465,-0.185547,-0.291504,0.969238,11943671465,8.0625,3.5625,4.375,11943671465,-0.180725,0.0449219,0.293091,0.937744,-0.324071,0.191354,0.574452
11943672251,-18,4,-1,2,2,1,-4,-31,11943671465,-0.185547,-0.291504,0.969238,11943671465,8.0625,3.5625,4.375,11943671465,-0.180725,0.0449219,0.293091,0.937744,-0.324071,0.191354,0.574452
11943672251,0,-1,0,-2,-4,7,0,1,11943671465,-0.185547,-0.291504,0.969238,11943671465,8.0625,3.5625,4.375,11943671465,-0.180725,0.0449219,0.293091,0.937744,-0.324071,0.191354,0.574452
11943684289,12,4,3,3,2,8,5,-34,11943671465,-0.185547,-0.291504,0.969238,11943671465,8.0625,3.5625,4.375,11943671465,-0.180725,0.0449219,0.293091,0.937744,-0.324071,0.191354,0.574452
11943684289,-27,-18,-4,-2,-3,-12,-10,46,11943692546,-0.205078,-0.297363,0.952637,11943692546,-2.625,4.25,3.8125,11943692546,-0.181091,0.0457764,0.29364,0.937439,-0.324232,0.193379,0.575329
11943693377,14,6,1,1,-1,-5,-4,19,11943692546,-0.205078,-0.297363,0.952637,11943692546,-2.625,4.25,3.8125,11943692546,-0.181091,0.0457764,0.29364,0.937439,-0.324232,0.193379,0.575329
11943693377,0,3,-1,4,5,2,7,-38,11943692546,-0.205078,-0.297363,0.952637,11943692546,-2.625,4.25,3.8125,11943692546,-0.181091,0.0457764,0.29364,0.937439,-0.324232,0.193379,0.575329
11943708795,0,-2,-2,-1,-4,0,2,43,11943692546,-0.205078,-0.297363,0.952637,11943692546,-2.625,4.25,3.8125,11943692546,-0.181091,0.0457764,0.29364,0.937439,-0.324232,0.193379,0.575329
11943708795,2,-2,-1,-1,0,6,4,-27,11943709478,-0.216309,-0.32373,0.943359,11943709478,-9.5,1.8125,2.75,11943709478,-0.1828,0.0458984,0.294128,0.936951,-0.327454,0.194772,0.576025
11943714428,-4,-6,-3,-5,-11,-16,10,-10,11943709478,-0.216309,-0.32373,0.943359,11943709478,-9.5,1.8125,2.75,11943709478,-0.1828,0.0458984,0.294128,0.936951,-0.327454,0.194772,0.576025
11943714428,1,-1,-3,-4,-1,1,-2,16,11943709478,-0.216309,-0.32373,0.943359,11943709478,-9.5,1.8125,2.75,11943709478,-0.1828,0.0458984,0.294128,0.936951,-0.327454,0.194772,0.576025
11943731554,-3,-5,-1,-1,-3,-3,0,-5,11943709478,-0.216309,-0.32373,0.943359,11943709478,-9.5,1.8125,2.75,11943709478,-0.1828,0.0458984,0.294128,0.936951,-0.327454,0.194772,0.576025
11943731554,22,5,0,0,0,-4,-5,-22,11943732248,-0.20166,-0.339355,0.934082,11943732248,-9.4375,-3.3125,1.4375,11943732248,-0.184387,0.0449219,0.294556,0.936584,-0.331034,0.193985,0.576889
11943732948,-8,-4,-1,-1,5,2,-3,-51,11943732248,-0.20166,-0.339355,0.934082,11943732248,-9.4375,-3.3125,1.4375,11943732248,-0.184387,0.0449219,0.294556,0.936584,-0.331034,0.193985,0.576889
11943732948,10,4,0,-2,-3,-10,-7,-5,11943732248,-0.20166,-0.339355,0.934082,11943732248,-9.4375,-3.3125,1.4375,11943732248,-0.184387,0.0449219,0.294556,0.936584,-0.331034,0.193985,0.576889
11943745225,-4,-2,-1,0,4,5,3,3,11943732248,-0.20166,-0.339355,0.934082,11943732248,-9.4375,-3.3125,1.4375,11943732248,-0.184387,0.0449219,0.294556,0.936584,-0.331034,0.193985,0.576889
11943745225,-5,0,-3,-2,-1,0,-5,-20,11943745906,-0.174805,-0.329102,0.928223,11943745906,-5.9375,-5.875,3.8125,11943745906,-0.185059,0.0435791,0.295349,0.936218,-0.332896,0.192092,0.578735
11943752024,18,-5,0,1,3,9,0,33,11943745906,-0.174805,-0.329102,0.928223,11943745906,-5.9375,-5.875,3.8125,11943745906,-0.185059,0.0435791,0.295349,0.936218,-0.332896,0.192092,0.578735
11943752024,-8,-1,-1,0,-4,0,2,33,11943745906,-0.174805,-0.329102,0.928223,11943745906,-5.9375,-5.875,3.8125,11943745906,-0.185059,0.0435791,0.295349,0.936218,-0.332896,0.192092,0.578735
11943768388,0,1,0,-2,-1,-2,-2,11,11943745906,-0.174805,-0.329102,0.928223,11943745906,-5.9375,-5.875,3.8125,11943745906,-0.185059,0.0435791,0.295349,0.936218,-0.332896,0.192092,0.578735
11943768388,-4,0,0,1,-4,4,7,-6,11943769038,-0.154785,-0.320801,0.923828,11943769038,-4,-4.8125,7.875,11943769038,-0.185242,0.0424805,0.296814,0.935791,-0.333561,0.190623,0.582052
11943769832,-4,-2,-2,0,1,6,-2,-16,11943769038,-0.154785,-0.320801,0.923828,11943769038,-4,-4.8125,7.875,11943769038,-0.185242,0.0424805,0.296814,0.935791,-0.333561,0.190623,0.582052
11943769832,-1,0,0,1,3,-1,-1,-13,11943769038,-0.154785,-0.320801,0.923828,11943769038,-4,-4.8125,7.875,11943769038,-0.185242,0.0424805,0.296814,0.935791,-0.333561,0.190623,0.582052
11943790849,-10,-10,0,-1,-3,-8,1,-1,11943769038,-0.154785,-0.320801,0.923828,11943769038,-4,-4.8125,7.875,11943769038,-0.185242,0.0424805,0.296814,0.935791,-0.333561,0.190623,0.582052
11943790849,-4,12,1,-2,1,-2,0,42,11943791596,-0.163086,-0.335938,0.92334,11943791596,-2.75,-3.625,13.625,11943791596,-0.185486,0.0418091,0.299072,0.935059,-0.333964,0.190281,0.586912
11943792447,11,-4,0,0,1,2,0,2,11943791596,-0.163086,-0.335938,0.92334,11943791596,-2.75,-3.625,13.625,11943791596,-0.185486,0.0418091,0.299072,0.935059,-0.333964,0.190281,0.586912
11943792447,4,-2,-1,1,1,1,0,-10,11943791596,-0.163086,-0.335938,0.92334,11943791596,-2.75,-3.625,13.625,11943791596,-0.185486,0.0418091,0.299072,0.935059,-0.333964,0.190281,0.586912
11943805212,-5,-4,-2,-2,-1,4,5,9,11943791596,-0.163086,-0.335938,0.92334,11943791596,-2.75,-3.625,13.625,11943791596,-0.185486,0.0418091,0.299072,0.935059,-0.333964,0.190281,0.586912
11943805212,-1,1,2,0,0,3,-1,-33,11943805946,-0.163574,-0.353027,0.929199,11943805946,1.25,-2.75,16.125,11943805946,-0.185303,0.0415649,0.301697,0.934265,-0.333223,0.190628,0.592514
11943811987,-6,-1,-3,-2,-1,-7,-7,-8,11943805946,-0.163574,-0.353027,0.929199,11943805946,1.25,-2.75,16.125,11943805946,-0.185303,0.0415649,0.301697,0.934265,-0.333223,0.190628,0.592514
11943811987,0,-2,2,2,1,3,-2,4,11943805946,-0.163574,-0.353027,0.929199,11943805946,1.25,-2.75,16.125,11943805946,-0.185303,0.0415649,0.301697,0.934265,-0.333223,0.190628,0.592514
11943828405,3,3,-4,-3,-5,-9,-3,-6,11943805946,-0.163574,-0.353027,0.929199,11943805946,1.25,-2.75,16.125,11943805946,-0.185303,0.0415649,0.301697,0.934265,-0.333223,0.190628,0.592514
11943828405,0,-6,-1,2,-2,-5,1,-10,11943829096,-0.178711,-0.353027,0.950684,11943829096,6.3125,-2.1875,14.9375,11943829096,-0.184265,0.041748,0.304077,0.933655,-0.330597,0.191181,0.597632
11943829849,-5,0,-2,0,-3,0,-3,-2,11943829096,-0.178711,-0.353027,0.950684,11943829096,6.3125,-2.1875,14.9375,11943829096,-0.184265,0.041748,0.304077,0.933655,-0.330597,0.191181,0.597632
11943829849,3,-2,-1,-1,-3,-6,-1,-5,11943829096,-0.178711,-0.353027,0.950684,11943829096,6.3125,-2.1875,14.9375,11943829096,-0.184265,0.041748,0.304077,0.933655,-0.330597,0.191181,0.597632
11943850856,-3,2,-2,0,4,2,0,-2,11943829096,-0.178711,-0.353027,0.950684,11943829096,6.3125,-2.1875,14.9375,11943829096,-0.184265,0.041748,0.304077,0.933655,-0.330597,0.191181,0.597632
