timestamp,emg1,emg2,emg3,emg4,emg5,emg6,emg7,emg8,timestamp_accelerometer,accelerometer-x,accelerometer-y,accelerometer-z,timestamp_gyro,gyro-x,gyro-y,gyro-z,timestamp_orientation,orientation-x,orientation-y,orientation-z,,orientation-w,roll,pitch,yaw
140734799966975,1,0,0,0,0,0,0,0,11683957551,-0.495117,0.327637,0.819824,11683957551,-0.0625,0.3125,-0.625,11683957551,0.0231934,0.304321,0.453064,0.837585,0.368934,0.510684,1.089
11683958370,1,5,1,3,-5,3,-1,-1,11683957551,-0.495117,0.327637,0.819824,11683957551,-0.0625,0.3125,-0.625,11683957551,0.0231934,0.304321,0.453064,0.837585,0.368934,0.510684,1.089
11683958370,-7,-2,1,6,-2,3,1,2,11683957551,-0.495117,0.327637,0.819824,11683957551,-0.0625,0.3125,-0.625,11683957551,0.0231934,0.304321,0.453064,0.837585,0.368934,0.510684,1.089
11683959183,2,-3,-2,-6,1,-4,1,-2,11683957551,-0.495117,0.327637,0.819824,11683957551,-0.0625,0.3125,-0.625,11683957551,0.0231934,0.304321,0.453064,0.837585,0.368934,0.510684,1.089
11683959183,2,0,0,-2,1,0,-4,-1,11683957551,-0.495117,0.327637,0.819824,11683957551,-0.0625,0.3125,-0.625,11683957551,0.0231934,0.304321,0.453064,0.837585,0.368934,0.510684,1.089
11683963284,-7,-2,-1,1,-3,3,3,1,11683957551,-0.495117,0.327637,0.819824,11683957551,-0.0625,0.3125,-0.625,11683957551,0.0231934,0.304321,0.453064,0.837585,0.368934,0.510684,1.089
11683963284,-1,-1,0,-1,0,-3,-3,-2,11683957551,-0.495117,0.327637,0.819824,11683957551,-0.0625,0.3125,-0.625,11683957551,0.0231934,0.304321,0.453064,0.837585,0.368934,0.510684,1.089
11683966136,2,0,2,-1,0,-4,-2,-1,11683957551,-0.495117,0.327637,0.819824,11683957551,-0.0625,0.3125,-0.625,11683957551,0.0231934,0.304321,0.453064,0.837585,0.368934,0.510684,1.089
11683966136,-2,1,-1,3,-1,4,1,-1,11683967064,-0.491211,0.319824,0.815918,11683967064,-0.125,0.0625,-0.0625,11683967064,0.0231934,0.304321,0.453064,0.837585,0.368934,0.510684,1.089
11683969060,-1,-1,0,2,-1,1,-1,0,11683967064,-0.491211,0.319824,0.815918,11683967064,-0.125,0.0625,-0.0625,11683967064,0.0231934,0.304321,0.453064,0.837585,0.368934,0.510684,1.089
11683969060,5,-2,0,-4,2,-4,-2,-3,11683967064,-0.491211,0.319824,0.815918,11683967064,-0.125,0.0625,-0.0625,11683967064,0.0231934,0.304321,0.453064,0.837585,0.368934,0.510684,1.089
11683977751,-3,0,-3,2,1,4,1,1,11683967064,-0.491211,0.319824,0.815918,11683967064,-0.125,0.0625,-0.0625,11683967064,0.0231934,0.304321,0.453064,0.837585,0.368934,0.510684,1.089
11683977751,-2,-3,-3,-2,-4,-1,1,-1,11683984149,-0.498047,0.314941,0.818359,11683984149,0.3125,0.25,-0.25,11683984149,0.0231934,0.304321,0.453064,0.837585,0.368934,0.510684,1.089
11683992780,1,-1,-2,-6,4,-7,-5,-3,11683984149,-0.498047,0.314941,0.818359,11683984149,0.3125,0.25,-0.25,11683984149,0.0231934,0.304321,0.453064,0.837585,0.368934,0.510684,1.089
11683992780,1,0,-1,1,-1,-2,-4,-1,11683984149,-0.498047,0.314941,0.818359,11683984149,0.3125,0.25,-0.25,11683984149,0.0231934,0.304321,0.453064,0.837585,0.368934,0.510684,1.089
11683999835,-3,0,-3,1,-7,2,1,0,11683984149,-0.498047,0.314941,0.818359,11683984149,0.3125,0.25,-0.25,11683984149,0.0231934,0.304321,0.453064,0.837585,0.368934,0.510684,1.089
11683999835,-1,0,1,0,0,-4,-1,-1,11684000584,-0.498535,0.317871,0.821289,11684000584,0.5625,0.3125,-0.4375,11684000584,0.0231934,0.304321,0.453003,0.837585,0.368894,0.510687,1.08883
11684007845,3,-3,-1,-3,2,-3,-2,-2,11684000584,-0.498535,0.317871,0.821289,11684000584,0.5625,0.3125,-0.4375,11684000584,0.0231934,0.304321,0.453003,0.837585,0.368894,0.510687,1.08883
11684007845,-1,0,-2,0,-3,3,0,-1,11684000584,-0.498535,0.317871,0.821289,11684000584,0.5625,0.3125,-0.4375,11684000584,0.0231934,0.304321,0.453003,0.837585,0.368894,0.510687,1.08883
11684030565,-1,-1,1,-4,1,-2,0,0,11684000584,-0.498535,0.317871,0.821289,11684000584,0.5625,0.3125,-0.4375,11684000584,0.0231934,0.304321,0.453003,0.837585,0.368894,0.510687,1.08883
11684030565,-1,-2,-1,-3,0,-3,-3,-3,11684031407,-0.500977,0.318359,0.823242,11684031407,-0.1875,-0.125,-0.0625,11684031407,0.0231934,0.304321,0.453003,0.837585,0.368894,0.510687,1.08883
11684032187,0,-3,-3,-2,-2,-2,0,-1,11684031407,-0.500977,0.318359,0.823242,11684031407,-0.1875,-0.125,-0.0625,11684031407,0.0231934,0.304321,0.453003,0.837585,0.368894,0.510687,1.08883
11684032187,-2,-3,-3,-2,-1,1,0,1,11684076611,-0.494141,0.324219,0.818848,11684076611,-0.0625,0.1875,-0.5,11684076611,0.0232544,0.304321,0.453064,0.837524,0.369042,0.510578,1.08899
11684077411,-5,2,-2,4,-7,4,0,0,11684076611,-0.494141,0.324219,0.818848,11684076611,-0.0625,0.1875,-0.5,11684076611,0.0232544,0.304321,0.453064,0.837524,0.369042,0.510578,1.08899
11684077411,-5,-1,-2,-1,-2,-1,2,-1,11684076611,-0.494141,0.324219,0.818848,11684076611,-0.0625,0.1875,-0.5,11684076611,0.0232544,0.304321,0.453064,0.837524,0.369042,0.510578,1.08899
11684078154,2,-3,2,-4,4,-4,-3,-3,11684076611,-0.494141,0.324219,0.818848,11684076611,-0.0625,0.1875,-0.5,11684076611,0.0232544,0.304321,0.453064,0.837524,0.369042,0.510578,1.08899
11684078154,-1,0,-4,1,-3,0,0,0,11684076611,-0.494141,0.324219,0.818848,11684076611,-0.0625,0.1875,-0.5,11684076611,0.0232544,0.304321,0.453064,0.837524,0.369042,0.510578,1.08899
11684078956,-2,-1,-2,-4,-4,0,1,-2,11684076611,-0.494141,0.324219,0.818848,11684076611,-0.0625,0.1875,-0.5,11684076611,0.0232544,0.304321,0.453064,0.837524,0.369042,0.510578,1.08899
11684078956,3,-3,1,-2,5,-5,-2,-2,11684076611,-0.494141,0.324219,0.818848,11684076611,-0.0625,0.1875,-0.5,11684076611,0.0232544,0.304321,0.453064,0.837524,0.369042,0.510578,1.08899
11684082114,0,1,-2,-2,-3,1,-1,-3,11684076611,-0.494141,0.324219,0.818848,11684076611,-0.0625,0.1875,-0.5,11684076611,0.0232544,0.304321,0.453064,0.837524,0.369042,0.510578,1.08899
11684082114,-4,-2,1,2,-2,2,-1,-2,11684082880,-0.5,0.327148,0.822754,11684082880,-0.3125,0.375,0.3125,11684082880,0.0232544,0.304382,0.453064,0.837524,0.369132,0.510695,1.08906
11684088915,1,-2,1,-4,1,-3,-4,-1,11684082880,-0.5,0.327148,0.822754,11684082880,-0.3125,0.375,0.3125,11684082880,0.0232544,0.304382,0.453064,0.837524,0.369132,0.510695,1.08906
11684088915,1,-1,-2,-2,-1,-1,-3,-3,11684082880,-0.5,0.327148,0.822754,11684082880,-0.3125,0.375,0.3125,11684082880,0.0232544,0.304382,0.453064,0.837524,0.369132,0.510695,1.08906
11684096445,-4,2,-3,0,-4,3,1,0,11684082880,-0.5,0.327148,0.822754,11684082880,-0.3125,0.375,0.3125,11684082880,0.0232544,0.304382,0.453064,0.837524,0.369132,0.510695,1.08906
11684096445,0,-3,0,2,1,-1,-1,0,11684104638,-0.48584,0.32666,0.822754,11684104638,-0.4375,1.375,0.9375,11684104638,0.0232544,0.304504,0.453247,0.837402,0.369425,0.510835,1.08966
11684105399,2,-1,-1,-2,5,-3,-3,-3,11684104638,-0.48584,0.32666,0.822754,11684104638,-0.4375,1.375,0.9375,11684104638,0.0232544,0.304504,0.453247,0.837402,0.369425,0.510835,1.08966
11684105399,-1,0,-2,0,-1,2,0,0,11684104638,-0.48584,0.32666,0.822754,11684104638,-0.4375,1.375,0.9375,11684104638,0.0232544,0.304504,0.453247,0.837402,0.369425,0.510835,1.08966
11684119623,-2,-3,-4,0,-2,1,-1,-2,11684104638,-0.48584,0.32666,0.822754,11684104638,-0.4375,1.375,0.9375,11684104638,0.0232544,0.304504,0.453247,0.837402,0.369425,0.510835,1.08966
11684119623,2,-2,-3,-4,2,-1,-3,-3,11684120380,-0.492676,0.313477,0.820801,11684120380,-0.375,1.4375,0.375,11684120380,0.0230713,0.304626,0.453308,0.83728,0.369304,0.511171,1.08986
11684126442,1,-2,-2,0,0,-2,-2,0,11684120380,-0.492676,0.313477,0.820801,11684120380,-0.375,1.4375,0.375,11684120380,0.0230713,0.304626,0.453308,0.83728,0.369304,0.511171,1.08986
11684126442,-4,0,-3,0,-3,2,0,1,11684120380,-0.492676,0.313477,0.820801,11684120380,-0.375,1.4375,0.375,11684120380,0.0230713,0.304626,0.453308,0.83728,0.369304,0.511171,1.08986
11684141414,-2,0,0,0,2,-4,-2,0,11684120380,-0.492676,0.313477,0.820801,11684120380,-0.375,1.4375,0.375,11684120380,0.0230713,0.304626,0.453308,0.83728,0.369304,0.511171,1.08986
11684141414,0,1,-1,-4,-1,-5,-3,-2,11684149670,-0.501953,0.312988,0.822754,11684149670,0.5,1.4375,0.3125,11684149670,0.0229492,0.304932,0.453308,0.837219,0.369527,0.511841,1.09018
11684150387,-2,0,-1,2,2,5,1,-1,11684149670,-0.501953,0.312988,0.822754,11684149670,0.5,1.4375,0.3125,11684149670,0.0229492,0.304932,0.453308,0.837219,0.369527,0.511841,1.09018
11684150387,-1,-3,0,3,-2,1,0,-1,11684149670,-0.501953,0.312988,0.822754,11684149670,0.5,1.4375,0.3125,11684149670,0.0229492,0.304932,0.453308,0.837219,0.369527,0.511841,1.09018
11684165279,1,-1,-3,-2,0,-2,1,0,11684149670,-0.501953,0.312988,0.822754,11684149670,0.5,1.4375,0.3125,11684149670,0.0229492,0.304932,0.453308,0.837219,0.369527,0.511841,1.09018
11684165279,-2,0,1,1,-4,-3,-1,0,11684166068,-0.505371,0.318359,0.809082,11684166068,2,0.875,0.6875,11684166068,0.0231934,0.305359,0.453308,0.837036,0.370595,0.512279,1.09071
11684166888,-2,-2,-2,-2,-3,-3,1,0,11684166068,-0.505371,0.318359,0.809082,11684166068,2,0.875,0.6875,11684166068,0.0231934,0.305359,0.453308,0.837036,0.370595,0.512279,1.09071
11684166888,-1,1,1,1,-3,-3,0,0,11684166068,-0.505371,0.318359,0.809082,11684166068,2,0.875,0.6875,11684166068,0.0231934,0.305359,0.453308,0.837036,0.370595,0.512279,1.09071
11684187839,0,1,-3,0,-1,-1,0,1,11684166068,-0.505371,0.318359,0.809082,11684166068,2,0.875,0.6875,11684166068,0.0231934,0.305359,0.453308,0.837036,0.370595,0.512279,1.09071
11684187839,0,0,0,-1,-1,0,-2,-1,11684188666,-0.496582,0.324219,0.811523,11684188666,1.3125,0.75,0.9375,11684188666,0.0233765,0.305664,0.453369,0.836914,0.371415,0.512586,1.09126
11684189476,0,-1,-1,-4,0,0,0,-2,11684188666,-0.496582,0.324219,0.811523,11684188666,1.3125,0.75,0.9375,11684188666,0.0233765,0.305664,0.453369,0.836914,0.371415,0.512586,1.09126
11684189476,-1,1,0,-4,-2,0,-4,-4,11684188666,-0.496582,0.324219,0.811523,11684188666,1.3125,0.75,0.9375,11684188666,0.0233765,0.305664,0.453369,0.836914,0.371415,0.512586,1.09126
11684201466,-1,-3,-2,1,-3,-1,0,-1,11684188666,-0.496582,0.324219,0.811523,11684188666,1.3125,0.75,0.9375,11684188666,0.0233765,0.305664,0.453369,0.836914,0.371415,0.512586,1.09126
11684201466,-1,-1,-1,1,1,-1,-1,1,11684209674,-0.505371,0.321289,0.816895,11684209674,-0.125,-0.1875,0.9375,11684209674,0.0233765,0.305725,0.453369,0.836914,0.371505,0.512703,1.09134
11684210406,-2,1,0,-2,-1,-3,-2,1,11684209674,-0.505371,0.321289,0.816895,11684209674,-0.125,-0.1875,0.9375,11684209674,0.0233765,0.305725,0.453369,0.836914,0.371505,0.512703,1.09134
11684210406,-1,0,-1,-2,-1,1,-1,-1,11684209674,-0.505371,0.321289,0.816895,11684209674,-0.125,-0.1875,0.9375,11684209674,0.0233765,0.305725,0.453369,0.836914,0.371505,0.512703,1.09134
11684225278,-2,-1,3,2,-1,0,0,-1,11684209674,-0.505371,0.321289,0.816895,11684209674,-0.125,-0.1875,0.9375,11684209674,0.0233765,0.305725,0.453369,0.836914,0.371505,0.512703,1.09134
11684225278,-1,0,-2,-4,-1,-2,-1,-4,11684226094,-0.497559,0.318848,0.8125,11684226094,0.3125,-1.0625,1.5625,11684226094,0.0236206,0.305664,0.453552,0.836792,0.371975,0.512237,1.09179
11684226853,0,-1,-1,0,-3,-1,-3,-1,11684226094,-0.497559,0.318848,0.8125,11684226094,0.3125,-1.0625,1.5625,11684226094,0.0236206,0.305664,0.453552,0.836792,0.371975,0.512237,1.09179
11684226853,0,-1,-1,-1,-2,-2,0,-1,11684226094,-0.497559,0.318848,0.8125,11684226094,0.3125,-1.0625,1.5625,11684226094,0.0236206,0.305664,0.453552,0.836792,0.371975,0.512237,1.09179
11684247759,-1,2,-1,-2,2,1,-3,0,11684226094,-0.497559,0.318848,0.8125,11684226094,0.3125,-1.0625,1.5625,11684226094,0.0236206,0.305664,0.453552,0.836792,0.371975,0.512237,1.09179
11684247759,0,0,-1,-2,-5,-4,-1,0,11684248533,-0.501953,0.320312,0.814453,11684248533,0.4375,-1.8125,0.6875,11684248533,0.0238037,0.305542,0.453552,0.836792,0.372129,0.511812,1.09169
11684249426,-1,-3,0,3,-2,-1,1,0,11684248533,-0.501953,0.320312,0.814453,11684248533,0.4375,-1.8125,0.6875,11684248533,0.0238037,0.305542,0.453552,0.836792,0.372129,0.511812,1.09169
11684249426,-1,0,-3,-2,1,-4,-3,0,11684248533,-0.501953,0.320312,0.814453,11684248533,0.4375,-1.8125,0.6875,11684248533,0.0238037,0.305542,0.453552,0.836792,0.372129,0.511812,1.09169
11684261429,0,-2,2,2,-5,0,-1,-1,11684248533,-0.501953,0.320312,0.814453,11684248533,0.4375,-1.8125,0.6875,11684248533,0.0238037,0.305542,0.453552,0.836792,0.372129,0.511812,1.09169
11684261429,-2,1,-3,-4,-2,2,0,0,11684269856,-0.495605,0.32373,0.810547,11684269856,0.5,-1.5625,1.3125,11684269856,0.0241089,0.30542,0.453735,0.836731,0.372623,0.511207,1.0921
11684270561,-1,-1,-2,-2,1,0,0,-1,11684269856,-0.495605,0.32373,0.810547,11684269856,0.5,-1.5625,1.3125,11684269856,0.0241089,0.30542,0.453735,0.836731,0.372623,0.511207,1.0921
11684270561,-2,-1,-1,-2,-2,-3,0,-2,11684269856,-0.495605,0.32373,0.810547,11684269856,0.5,-1.5625,1.3125,11684269856,0.0241089,0.30542,0.453735,0.836731,0.372623,0.511207,1.0921
11684285362,-3,0,-1,-5,0,0,-1,-2,11684269856,-0.495605,0.32373,0.810547,11684269856,0.5,-1.5625,1.3125,11684269856,0.0241089,0.30542,0.453735,0.836731,0.372623,0.511207,1.0921
11684285362,0,-2,4,4,3,-2,0,-1,11684286184,-0.491699,0.316895,0.819824,11684286184,-0.25,-1.5,1.375,11684286184,0.024231,0.305115,0.453918,0.836731,0.372514,0.510485,1.09226
11684286974,2,0,-4,1,0,-2,0,-1,11684286184,-0.491699,0.316895,0.819824,11684286184,-0.25,-1.5,1.375,11684286184,0.024231,0.305115,0.453918,0.836731,0.372514,0.510485,1.09226
11684286974,-2,-1,0,3,-2,0,0,0,11684286184,-0.491699,0.316895,0.819824,11684286184,-0.25,-1.5,1.375,11684286184,0.024231,0.305115,0.453918,0.836731,0.372514,0.510485,1.09226
11684307749,-1,-2,-4,-5,0,0,-3,-1,11684286184,-0.491699,0.316895,0.819824,11684286184,-0.25,-1.5,1.375,11684286184,0.024231,0.305115,0.453918,0.836731,0.372514,0.510485,1.09226
11684307749,0,-2,-3,-2,1,0,0,-3,11684308599,-0.49707,0.321777,0.824707,11684308599,-2.1875,-0.6875,2.75,11684308599,0.0241089,0.304871,0.454468,0.836548,0.372278,0.509985,1.09332
11684309477,1,0,4,4,-7,-4,-1,-1,11684308599,-0.49707,0.321777,0.824707,11684308599,-2.1875,-0.6875,2.75,11684308599,0.0241089,0.304871,0.454468,0.836548,0.372278,0.509985,1.09332
11684309477,0,-2,-4,-3,6,0,-1,0,11684308599,-0.49707,0.321777,0.824707,11684308599,-2.1875,-0.6875,2.75,11684308599,0.0241089,0.304871,0.454468,0.836548,0.372278,0.509985,1.09332
11684330296,-1,-2,2,6,-5,-2,0,-2,11684308599,-0.49707,0.321777,0.824707,11684308599,-2.1875,-0.6875,2.75,11684308599,0.0241089,0.304871,0.454468,0.836548,0.372278,0.509985,1.09332
11684330296,-1,-1,-1,-4,3,-1,-3,1,11684331060,-0.493164,0.313477,0.825195,11684331060,-2.75,-0.5,4.3125,11684331060,0.0239258,0.304504,0.4552,0.836304,0.371866,0.509263,1.09468
11684331890,-2,-3,-3,-4,0,0,-2,-2,11684331060,-0.493164,0.313477,0.825195,11684331060,-2.75,-0.5,4.3125,11684331060,0.0239258,0.304504,0.4552,0.836304,0.371866,0.509263,1.09468
11684331890,1,0,-1,-3,-3,1,-1,1,11684331060,-0.493164,0.313477,0.825195,11684331060,-2.75,-0.5,4.3125,11684331060,0.0239258,0.304504,0.4552,0.836304,0.371866,0.509263,1.09468
11684345301,0,-1,-2,-3,1,-3,1,-3,11684331060,-0.493164,0.313477,0.825195,11684331060,-2.75,-0.5,4.3125,11684331060,0.0239258,0.304504,0.4552,0.836304,0.371866,0.509263,1.09468
11684345301,-2,-3,-4,-1,0,2,-2,-1,11684346087,-0.483887,0.296387,0.822266,11684346087,-1.625,-0.125,5.8125,11684346087,0.0238037,0.304138,0.456116,0.835938,0.371678,0.508384,1.09651
11684346862,-1,0,-1,2,-1,-1,-1,-2,11684346087,-0.483887,0.296387,0.822266,11684346087,-1.625,-0.125,5.8125,11684346087,0.0238037,0.304138,0.456116,0.835938,0.371678,0.508384,1.09651
11684346862,-1,-3,2,1,-1,-3,0,-2,11684346087,-0.483887,0.296387,0.822266,11684346087,-1.625,-0.125,5.8125,11684346087,0.0238037,0.304138,0.456116,0.835938,0.371678,0.508384,1.09651
11684367793,-1,-2,0,-1,1,-1,-2,2,11684346087,-0.483887,0.296387,0.822266,11684346087,-1.625,-0.125,5.8125,11684346087,0.0238037,0.304138,0.456116,0.835938,0.371678,0.508384,1.09651
11684367793,-3,1,-1,1,-4,0,0,-1,11684368529,-0.494629,0.292969,0.830078,11684368529,0.625,0.625,7.375,11684368529,0.0239258,0.304138,0.457153,0.835388,0.372546,0.507818,1.09912
11684369423,-1,-1,-1,-2,0,-2,-1,2,11684368529,-0.494629,0.292969,0.830078,11684368529,0.625,0.625,7.375,11684368529,0.0239258,0.304138,0.457153,0.835388,0.372546,0.507818,1.09912
11684369423,0,-1,-1,-2,-2,-2,-2,0,11684368529,-0.494629,0.292969,0.830078,11684368529,0.625,0.625,7.375,11684368529,0.0239258,0.304138,0.457153,0.835388,0.372546,0.507818,1.09912
11684390311,-1,0,-1,-1,1,1,-1,0,11684368529,-0.494629,0.292969,0.830078,11684368529,0.625,0.625,7.375,11684368529,0.0239258,0.304138,0.457153,0.835388,0.372546,0.507818,1.09912
11684390311,-1,-2,-2,-1,-1,-2,-2,-1,11684391054,-0.500977,0.305176,0.822266,11684391054,2.5625,1.25,10.6875,11684391054,0.0245361,0.304504,0.458496,0.834473,0.375023,0.507166,1.10301
11684391887,-1,-2,-2,-3,2,0,-2,-3,11684391054,-0.500977,0.305176,0.822266,11684391054,2.5625,1.25,10.6875,11684391054,0.0245361,0.304504,0.458496,0.834473,0.375023,0.507166,1.10301
11684391887,1,1,1,3,-2,-1,1,-1,11684391054,-0.500977,0.305176,0.822266,11684391054,2.5625,1.25,10.6875,11684391054,0.0245361,0.304504,0.458496,0.834473,0.375023,0.507166,1.10301
11684405441,-2,-2,-2,-2,-1,1,0,-3,11684391054,-0.500977,0.305176,0.822266,11684391054,2.5625,1.25,10.6875,11684391054,0.0245361,0.304504,0.458496,0.834473,0.375023,0.507166,1.10301
11684405441,-1,1,-1,-1,0,1,-2,-1,11684406157,-0.484375,0.313477,0.815918,11684406157,1.75,1.6875,14.4375,11684406157,0.0253296,0.304749,0.46051,0.833252,0.378067,0.505832,1.1085
11684406920,-1,2,1,2,-1,-1,-1,-1,11684406157,-0.484375,0.313477,0.815918,11684406157,1.75,1.6875,14.4375,11684406157,0.0253296,0.304749,0.46051,0.833252,0.378067,0.505832,1.1085
11684406920,-2,0,-3,-2,-4,0,-2,-2,11684406157,-0.484375,0.313477,0.815918,11684406157,1.75,1.6875,14.4375,11684406157,0.0253296,0.304749,0.46051,0.833252,0.378067,0.505832,1.1085
11684427905,-2,-2,-3,-2,0,-3,-1,-2,11684406157,-0.484375,0.313477,0.815918,11684406157,1.75,1.6875,14.4375,11684406157,0.0253296,0.304749,0.46051,0.833252,0.378067,0.505832,1.1085
11684427905,2,0,-1,0,1,0,0,2,11684428594,-0.476074,0.318848,0.822266,11684428594,0.5625,1.375,16.9375,11684428594,0.0261841,0.304749,0.462952,0.831848,0.381117,0.503809,1.11479
11684429420,0,-1,-1,-2,-2,-6,-1,-2,11684428594,-0.476074,0.318848,0.822266,11684428594,0.5625,1.375,16.9375,11684428594,0.0261841,0.304749,0.462952,0.831848,0.381117,0.503809,1.11479
11684429420,0,1,0,-2,1,1,-2,-1,11684428594,-0.476074,0.318848,0.822266,11684428594,0.5625,1.375,16.9375,11684428594,0.0261841,0.304749,0.462952,0.831848,0.381117,0.503809,1.11479
11684450465,1,0,0,2,-1,1,-2,0,11684428594,-0.476074,0.318848,0.822266,11684428594,0.5625,1.375,16.9375,11684428594,0.0261841,0.304749,0.462952,0.831848,0.381117,0.503809,1.11479
11684450465,-2,-3,-3,-4,1,-2,-1,0,11684451179,-0.480469,0.323242,0.818848,11684451179,-0.5,1.5625,18.625,11684451179,0.0269165,0.30481,0.465698,0.830322,0.384218,0.501921,1.12189
11684451964,-1,-1,-1,-2,3,-4,-1,-1,11684451179,-0.480469,0.323242,0.818848,11684451179,-0.5,1.5625,18.625,11684451179,0.0269165,0.30481,0.465698,0.830322,0.384218,0.501921,1.12189
11684451964,0,-1,-3,-1,-4,-2,-1,-2,11684451179,-0.480469,0.323242,0.818848,11684451179,-0.5,1.5625,18.625,11684451179,0.0269165,0.30481,0.465698,0.830322,0.384218,0.501921,1.12189
11684464779,-1,0,-1,-1,0,-2,-1,-2,11684451179,-0.480469,0.323242,0.818848,11684451179,-0.5,1.5625,18.625,11684451179,0.0269165,0.30481,0.465698,0.830322,0.384218,0.501921,1.12189
11684464779,0,-2,1,0,-1,2,1,0,11684465500,-0.484863,0.335449,0.818848,11684465500,-1.5,2.5625,21.3125,11684465500,0.0276489,0.304932,0.468872,0.82843,0.387654,0.499859,1.13009
11684471495,-1,1,0,0,2,-2,-2,0,11684465500,-0.484863,0.335449,0.818848,11684465500,-1.5,2.5625,21.3125,11684465500,0.0276489,0.304932,0.468872,0.82843,0.387654,0.499859,1.13009
11684471495,0,-1,-1,-5,1,-3,-2,-2,11684465500,-0.484863,0.335449,0.818848,11684465500,-1.5,2.5625,21.3125,11684465500,0.0276489,0.304932,0.468872,0.82843,0.387654,0.499859,1.13009
11684487941,-1,-2,1,-1,-1,2,-3,-1,11684465500,-0.484863,0.335449,0.818848,11684465500,-1.5,2.5625,21.3125,11684465500,0.0276489,0.304932,0.468872,0.82843,0.387654,0.499859,1.13009
11684487941,-2,0,-1,0,-2,-4,-3,-5,11684488610,-0.480469,0.335449,0.815918,11684488610,-2.25,4.3125,22.375,11684488610,0.0281372,0.305298,0.472229,0.826355,0.391122,0.49837,1.13896
11684489479,-2,-1,-2,0,-1,2,-2,-1,11684488610,-0.480469,0.335449,0.815918,11684488610,-2.25,4.3125,22.375,11684488610,0.0281372,0.305298,0.472229,0.826355,0.391122,0.49837,1.13896
11684489479,-6,-3,-1,3,-2,1,1,-1,11684488610,-0.480469,0.335449,0.815918,11684488610,-2.25,4.3125,22.375,11684488610,0.0281372,0.305298,0.472229,0.826355,0.391122,0.49837,1.13896
11684510330,8,-1,4,1,3,-11,-2,-2,11684488610,-0.480469,0.335449,0.815918,11684488610,-2.25,4.3125,22.375,11684488610,0.0281372,0.305298,0.472229,0.826355,0.391122,0.49837,1.13896
11684510330,0,0,-2,-2,2,25,1,-1,11684511057,-0.479492,0.322754,0.822266,11684511057,-2.125,5.625,23.125,11684511057,0.0284424,0.305664,0.475708,0.824219,0.394335,0.497019,1.14811
11684511966,-5,-2,-3,1,-6,-16,3,1,11684511057,-0.479492,0.322754,0.822266,11684511057,-2.125,5.625,23.125,11684511057,0.0284424,0.305664,0.475708,0.824219,0.394335,0.497019,1.14811
11684511966,0,-4,-4,-9,-7,-12,-9,-3,11684511057,-0.479492,0.322754,0.822266,11684511057,-2.125,5.625,23.125,11684511057,0.0284424,0.305664,0.475708,0.824219,0.394335,0.497019,1.14811
11684524822,2,1,-1,0,0,6,4,1,11684511057,-0.479492,0.322754,0.822266,11684511057,-2.125,5.625,23.125,11684511057,0.0284424,0.305664,0.475708,0.824219,0.394335,0.497019,1.14811
11684524822,-2,1,1,2,-18,-27,-2,0,11684525562,-0.472168,0.373047,0.827148,11684525562,-5.6875,4.5,23.125,11684525562,0.0288696,0.305786,0.479431,0.822021,0.397538,0.495014,1.15764
11684531590,-3,-5,-3,0,16,22,-3,-1,11684525562,-0.472168,0.373047,0.827148,11684525562,-5.6875,4.5,23.125,11684525562,0.0288696,0.305786,0.479431,0.822021,0.397538,0.495014,1.15764
11684531590,4,2,0,1,-7,-6,-2,-2,11684525562,-0.472168,0.373047,0.827148,11684525562,-5.6875,4.5,23.125,11684525562,0.0288696,0.305786,0.479431,0.822021,0.397538,0.495014,1.15764
11684547776,-6,-1,-3,-3,-11,-4,-3,1,11684525562,-0.472168,0.373047,0.827148,11684525562,-5.6875,4.5,23.125,11684525562,0.0288696,0.305786,0.479431,0.822021,0.397538,0.495014,1.15764
11684547776,-4,-2,0,2,5,15,3,-1,11684548555,-0.456543,0.443359,0.818359,11684548555,-17.4375,2.75,21.9375,11684548555,0.0283813,0.304871,0.483765,0.819824,0.397898,0.492035,1.16727
11684549389,6,4,3,1,4,11,6,0,11684548555,-0.456543,0.443359,0.818359,11684548555,-17.4375,2.75,21.9375,11684548555,0.0283813,0.304871,0.483765,0.819824,0.397898,0.492035,1.16727
11684549389,-2,3,3,6,17,23,7,4,11684548555,-0.456543,0.443359,0.818359,11684548555,-17.4375,2.75,21.9375,11684548555,0.0283813,0.304871,0.483765,0.819824,0.397898,0.492035,1.16727
11684570245,-7,-7,-8,-4,-19,-46,-11,-5,11684548555,-0.456543,0.443359,0.818359,11684548555,-17.4375,2.75,21.9375,11684548555,0.0283813,0.304871,0.483765,0.819824,0.397898,0.492035,1.16727
11684570245,0,4,-3,-2,10,16,-2,-3,11684571023,-0.475586,0.390137,0.78125,11684571023,-15.4375,7.1875,16.6875,11684571023,0.0269775,0.304993,0.487061,0.817871,0.397604,0.49225,1.17529
11684571825,-1,-3,-4,-11,-8,-10,-7,-2,11684571023,-0.475586,0.390137,0.78125,11684571023,-15.4375,7.1875,16.6875,11684571023,0.0269775,0.304993,0.487061,0.817871,0.397604,0.49225,1.17529
11684571825,-2,0,-3,5,-7,11,1,-1,11684571023,-0.475586,0.390137,0.78125,11684571023,-15.4375,7.1875,16.6875,11684571023,0.0269775,0.304993,0.487061,0.817871,0.397604,0.49225,1.17529
11684583912,-1,0,4,5,20,22,8,2,11684571023,-0.475586,0.390137,0.78125,11684571023,-15.4375,7.1875,16.6875,11684571023,0.0269775,0.304993,0.487061,0.817871,0.397604,0.49225,1.17529
11684583912,1,-4,2,0,2,-17,-3,-2,11684592194,-0.503906,0.417969,0.773926,11684592194,-17.1875,7.375,10.4375,11684592194,0.0250854,0.30542,0.489502,0.816345,0.396423,0.493939,1.18143
11684592912,-4,-1,-1,0,2,6,2,0,11684592194,-0.503906,0.417969,0.773926,11684592194,-17.1875,7.375,10.4375,11684592194,0.0250854,0.30542,0.489502,0.816345,0.396423,0.493939,1.18143
11684592912,-1,-6,-4,-5,-15,-17,-3,-2,11684592194,-0.503906,0.417969,0.773926,11684592194,-17.1875,7.375,10.4375,11684592194,0.0250854,0.30542,0.489502,0.816345,0.396423,0.493939,1.18143
11684607779,-2,3,-3,-6,5,-2,-4,0,11684592194,-0.503906,0.417969,0.773926,11684592194,-17.1875,7.375,10.4375,11684592194,0.0250854,0.30542,0.489502,0.816345,0.396423,0.493939,1.18143
11684607779,0,-2,-4,-1,-1,-8,2,2,11684608546,-0.539062,0.296875,0.762695,11684608546,-8.6875,8.5625,6.5,11684608546,0.0227051,0.306519,0.490601,0.815308,0.39462,0.497848,1.18484
11684609385,-6,0,1,5,2,8,-2,-1,11684608546,-0.539062,0.296875,0.762695,11684608546,-8.6875,8.5625,6.5,11684608546,0.0227051,0.306519,0.490601,0.815308,0.39462,0.497848,1.18484
11684609385,2,-1,0,-2,1,-8,-1,0,11684608546,-0.539062,0.296875,0.762695,11684608546,-8.6875,8.5625,6.5,11684608546,0.0227051,0.306519,0.490601,0.815308,0.39462,0.497848,1.18484
11684630283,2,-1,0,1,-2,3,-1,0,11684608546,-0.539062,0.296875,0.762695,11684608546,-8.6875,8.5625,6.5,11684608546,0.0227051,0.306519,0.490601,0.815308,0.39462,0.497848,1.18484
11684630283,-2,0,0,-1,-6,-2,-1,-1,11684631097,-0.490723,0.272461,0.842773,11684631097,-16.4375,5.8125,12.25,11684631097,0.0198364,0.305481,0.493164,0.81427,0.389574,0.498288,1.1894
11684631843,-1,-2,-2,-2,-2,-3,-1,0,11684631097,-0.490723,0.272461,0.842773,11684631097,-16.4375,5.8125,12.25,11684631097,0.0198364,0.305481,0.493164,0.81427,0.389574,0.498288,1.1894
11684631843,0,-1,-1,-5,0,-7,-2,-1,11684631097,-0.490723,0.272461,0.842773,11684631097,-16.4375,5.8125,12.25,11684631097,0.0198364,0.305481,0.493164,0.81427,0.389574,0.498288,1.1894
11684644087,0,0,-3,0,2,-2,-1,3,11684631097,-0.490723,0.272461,0.842773,11684631097,-16.4375,5.8125,12.25,11684631097,0.0198364,0.305481,0.493164,0.81427,0.389574,0.498288,1.1894
11684644087,5,-3,1,-2,1,24,-2,-53,11684652146,-0.459961,0.293945,0.895996,11684652146,-15.25,4.5,15.125,11684652146,0.0177612,0.303894,0.496216,0.813049,0.385374,0.496709,1.19477
11684652871,-2,5,-6,-16,-43,-83,-7,37,11684652146,-0.459961,0.293945,0.895996,11684652146,-15.25,4.5,15.125,11684652146,0.0177612,0.303894,0.496216,0.813049,0.385374,0.496709,1.19477
11684652871,1,-3,-1,-4,3,-53,-5,19,11684652146,-0.459961,0.293945,0.895996,11684652146,-15.25,4.5,15.125,11684652146,0.0177612,0.303894,0.496216,0.813049,0.385374,0.496709,1.19477
11684667847,-5,0,0,0,-11,32,-6,-46,11684652146,-0.459961,0.293945,0.895996,11684652146,-15.25,4.5,15.125,11684652146,0.0177612,0.303894,0.496216,0.813049,0.385374,0.496709,1.19477
11684667847,-4,-6,-3,-2,9,2,0,21,11684668632,-0.451172,0.351074,0.866211,11684668632,-10.6875,2.4375,11.8125,11684668632,0.0170288,0.302856,0.498657,0.811951,0.383994,0.494766,1.19957
11684669427,9,1,-2,-5,-38,-3,-5,-21,11684668632,-0.451172,0.351074,0.866211,11684668632,-10.6875,2.4375,11.8125,11684668632,0.0170288,0.302856,0.498657,0.811951,0.383994,0.494766,1.19957
11684669427,-7,1,0,-3,1,-27,1,-4,11684668632,-0.451172,0.351074,0.866211,11684668632,-10.6875,2.4375,11.8125,11684668632,0.0170288,0.302856,0.498657,0.811951,0.383994,0.494766,1.19957
11684697930,4,-2,-4,-7,-11,-18,-1,20,11684668632,-0.451172,0.351074,0.866211,11684668632,-10.6875,2.4375,11.8125,11684668632,0.0170288,0.302856,0.498657,0.811951,0.383994,0.494766,1.19957
11684697930,1,0,-1,-5,7,-9,-5,-7,11684698571,-0.443359,0.401855,0.845215,11684698571,-10.9375,4.75,9.375,11684698571,0.0164795,0.302429,0.500793,0.810791,0.383691,0.493724,1.20435
11684699489,-4,-5,-1,5,17,23,7,2,11684698571,-0.443359,0.401855,0.845215,11684698571,-10.9375,4.75,9.375,11684698571,0.0164795,0.302429,0.500793,0.810791,0.383691,0.493724,1.20435
11684699489,-2,-2,3,2,2,21,3,-2,11684698571,-0.443359,0.401855,0.845215,11684698571,-10.9375,4.75,9.375,11684698571,0.0164795,0.302429,0.500793,0.810791,0.383691,0.493724,1.20435
11684704098,-1,1,2,3,0,-2,2,7,11684698571,-0.443359,0.401855,0.845215,11684698571,-10.9375,4.75,9.375,11684698571,0.0164795,0.302429,0.500793,0.810791,0.383691,0.493724,1.20435
11684704098,-2,2,-2,1,-9,-3,1,-1,11684712336,-0.483398,0.277344,0.789062,11684712336,20.3125,4.625,7.6875,11684712336,0.0187378,0.30481,0.500671,0.809937,0.391247,0.494952,1.20732
11684712924,-3,1,2,0,13,9,-2,-3,11684712336,-0.483398,0.277344,0.789062,11684712336,20.3125,4.625,7.6875,11684712336,0.0187378,0.30481,0.500671,0.809937,0.391247,0.494952,1.20732
11684712924,3,-3,-3,1,-5,7,-1,-3,11684712336,-0.483398,0.277344,0.789062,11684712336,20.3125,4.625,7.6875,11684712336,0.0187378,0.30481,0.500671,0.809937,0.391247,0.494952,1.20732
11684727968,-5,-1,-3,-3,7,3,-1,-7,11684712336,-0.483398,0.277344,0.789062,11684712336,20.3125,4.625,7.6875,11684712336,0.0187378,0.30481,0.500671,0.809937,0.391247,0.494952,1.20732
11684727968,1,-1,-2,2,-6,-5,-1,14,11684728614,-0.508301,0.237793,0.857422,11684728614,11.75,3.1875,11.6875,11684728614,0.0195312,0.305725,0.501526,0.809021,0.394583,0.495061,1.21073
11684729429,-1,-2,-1,-3,5,-1,-2,-7,11684728614,-0.508301,0.237793,0.857422,11684728614,11.75,3.1875,11.6875,11684728614,0.0195312,0.305725,0.501526,0.809021,0.394583,0.495061,1.21073
11684729429,-1,1,-2,3,9,14,-1,-7,11684728614,-0.508301,0.237793,0.857422,11684728614,11.75,3.1875,11.6875,11684728614,0.0195312,0.305725,0.501526,0.809021,0.394583,0.495061,1.21073
11684749615,0,-1,-2,-3,-10,0,-4,1,11684728614,-0.508301,0.237793,0.857422,11684728614,11.75,3.1875,11.6875,11684728614,0.0195312,0.305725,0.501526,0.809021,0.394583,0.495061,1.21073
11684749615,-2,0,-1,-3,-1,7,3,8,11684757150,-0.479004,0.314941,0.853027,11684757150,18.1875,3.375,16.75,11684757150,0.0223389,0.307312,0.50293,0.807495,0.402799,0.493642,1.2168
11684757995,2,-3,-1,0,-3,-20,-1,-6,11684757150,-0.479004,0.314941,0.853027,11684757150,18.1875,3.375,16.75,11684757150,0.0223389,0.307312,0.50293,0.807495,0.402799,0.493642,1.2168
11684757995,-1,-2,-1,-5,-3,3,-5,-8,11684757150,-0.479004,0.314941,0.853027,11684757150,18.1875,3.375,16.75,11684757150,0.0223389,0.307312,0.50293,0.807495,0.402799,0.493642,1.2168
11684764065,0,0,0,1,-3,-16,4,8,11684757150,-0.479004,0.314941,0.853027,11684757150,18.1875,3.375,16.75,11684757150,0.0223389,0.307312,0.50293,0.807495,0.402799,0.493642,1.2168
11684764065,-1,-2,1,5,18,38,6,2,11684772251,-0.466797,0.399414,0.791016,11684772251,20.75,1.3125,13.1875,11684772251,0.0263672,0.30957,0.503723,0.80603,0.413807,0.492105,1.22241
11684772975,5,1,2,-10,-29,-55,-13,-11,11684772251,-0.466797,0.399414,0.791016,11684772251,20.75,1.3125,13.1875,11684772251,0.0263672,0.30957,0.503723,0.80603,0.413807,0.492105,1.22241
11684772975,0,0,-3,1,9,9,4,0,11684772251,-0.466797,0.399414,0.791016,11684772251,20.75,1.3125,13.1875,11684772251,0.0263672,0.30957,0.503723,0.80603,0.413807,0.492105,1.22241
11684787871,0,1,2,-1,0,-8,-3,0,11684772251,-0.466797,0.399414,0.791016,11684772251,20.75,1.3125,13.1875,11684772251,0.0263672,0.30957,0.503723,0.80603,0.413807,0.492105,1.22241
11684787871,-2,-2,0,1,6,-4,-1,0,11684788618,-0.48584,0.481445,0.749023,11684788618,9.5625,-1.3125,3.8125,11684788618,0.0291748,0.311279,0.503845,0.805176,0.421433,0.49141,1.22539
11684789420,1,-2,-2,0,9,20,3,-2,11684788618,-0.48584,0.481445,0.749023,11684788618,9.5625,-1.3125,3.8125,11684788618,0.0291748,0.311279,0.503845,0.805176,0.421433,0.49141,1.22539
11684789420,-1,1,1,3,0,0,0,1,11684788618,-0.48584,0.481445,0.749023,11684788618,9.5625,-1.3125,3.8125,11684788618,0.0291748,0.311279,0.503845,0.805176,0.421433,0.49141,1.22539
11684810263,-2,-3,0,-1,9,9,1,0,11684788618,-0.48584,0.481445,0.749023,11684788618,9.5625,-1.3125,3.8125,11684788618,0.0291748,0.311279,0.503845,0.805176,0.421433,0.49141,1.22539
11684810263,-2,-1,0,-1,-6,-16,-1,0,11684811079,-0.504395,0.435059,0.763672,11684811079,6,1.0625,1.5,11684811079,0.0305176,0.312805,0.503662,0.804626,0.426069,0.492286,1.22706
11684811886,-3,-2,-3,2,9,21,0,0,11684811079,-0.504395,0.435059,0.763672,11684811079,6,1.0625,1.5,11684811079,0.0305176,0.312805,0.503662,0.804626,0.426069,0.492286,1.22706
11684811886,1,-1,-1,-4,-3,-1,-1,-1,11684811079,-0.504395,0.435059,0.763672,11684811079,6,1.0625,1.5,11684811079,0.0305176,0.312805,0.503662,0.804626,0.426069,0.492286,1.22706
11684824095,0,-1,-2,2,5,10,0,0,11684811079,-0.504395,0.435059,0.763672,11684811079,6,1.0625,1.5,11684811079,0.0305176,0.312805,0.503662,0.804626,0.426069,0.492286,1.22706
11684824095,-1,1,-1,-6,-19,-21,-4,0,11684832371,-0.48877,0.387207,0.796387,11684832371,-0.8125,2.5625,5.6875,11684832371,0.0305786,0.313354,0.504517,0.803894,0.427576,0.492639,1.22991
11684833044,-3,-2,1,1,14,16,2,-2,11684832371,-0.48877,0.387207,0.796387,11684832371,-0.8125,2.5625,5.6875,11684832371,0.0305786,0.313354,0.504517,0.803894,0.427576,0.492639,1.22991
11684833044,0,-1,-3,1,-1,6,-2,-4,11684832371,-0.48877,0.387207,0.796387,11684832371,-0.8125,2.5625,5.6875,11684832371,0.0305786,0.313354,0.504517,0.803894,0.427576,0.492639,1.22991
11684847831,0,-1,0,1,4,12,2,0,11684832371,-0.48877,0.387207,0.796387,11684832371,-0.8125,2.5625,5.6875,11684832371,0.0305786,0.313354,0.504517,0.803894,0.427576,0.492639,1.22991
11684847831,2,-2,4,2,-7,-25,-2,1,11684848604,-0.481934,0.354492,0.803711,11684848604,-7.5,0.0625,7.5,11684848604,0.0297852,0.312683,0.50592,0.803284,0.425988,0.491795,1.23246
11684849399,0,2,0,2,-3,6,-2,-4,11684848604,-0.481934,0.354492,0.803711,11684848604,-7.5,0.0625,7.5,11684848604,0.0297852,0.312683,0.50592,0.803284,0.425988,0.491795,1.23246
11684849399,-1,-1,1,0,1,0,2,-1,11684848604,-0.481934,0.354492,0.803711,11684848604,-7.5,0.0625,7.5,11684848604,0.0297852,0.312683,0.50592,0.803284,0.425988,0.491795,1.23246
11684870468,-1,-3,-4,-3,-1,7,2,-1,11684848604,-0.481934,0.354492,0.803711,11684848604,-7.5,0.0625,7.5,11684848604,0.0297852,0.312683,0.50592,0.803284,0.425988,0.491795,1.23246
11684870468,0,-2,-6,-5,-21,-28,-9,-3,11684871128,-0.483887,0.337891,0.810059,11684871128,-5.625,-2.625,5.5,11684871128,0.0292358,0.311707,0.506958,0.80304,0.424108,0.490404,1.23379
11684871898,-3,0,-1,1,12,18,1,0,11684871128,-0.483887,0.337891,0.810059,11684871128,-5.625,-2.625,5.5,11684871128,0.0292358,0.311707,0.506958,0.80304,0.424108,0.490404,1.23379
11684871898,-1,-2,-1,-3,-2,11,-2,-1,11684871128,-0.483887,0.337891,0.810059,11684871128,-5.625,-2.625,5.5,11684871128,0.0292358,0.311707,0.506958,0.80304,0.424108,0.490404,1.23379
11684884165,-1,0,0,-4,-6,-17,-3,-1,11684871128,-0.483887,0.337891,0.810059,11684871128,-5.625,-2.625,5.5,11684871128,0.0292358,0.311707,0.506958,0.80304,0.424108,0.490404,1.23379
11684884165,0,-1,2,-3,0,2,0,2,11684892164,-0.479004,0.371582,0.81543,11684892164,-0.375,-4.0625,3.4375,11684892164,0.0297241,0.311157,0.507385,0.802979,0.424322,0.488772,1.23432
11684892896,-1,-3,-5,-1,7,3,-1,-2,11684892164,-0.479004,0.371582,0.81543,11684892164,-0.375,-4.0625,3.4375,11684892164,0.0297241,0.311157,0.507385,0.802979,0.424322,0.488772,1.23432
11684892896,0,2,-2,-3,-17,-7,-1,-3,11684892164,-0.479004,0.371582,0.81543,11684892164,-0.375,-4.0625,3.4375,11684892164,0.0297241,0.311157,0.507385,0.802979,0.424322,0.488772,1.23432
11684907818,-3,-4,1,0,5,-3,0,0,11684892164,-0.479004,0.371582,0.81543,11684892164,-0.375,-4.0625,3.4375,11684892164,0.0297241,0.311157,0.507385,0.802979,0.424322,0.488772,1.23432
11684907818,0,0,-1,-1,6,6,1,-3,11684908581,-0.469238,0.39502,0.786621,11684908581,4.0625,-3.75,2.4375,11684908581,0.0310669,0.311279,0.507507,0.802795,0.426887,0.487314,1.23507
11684909477,-1,-2,-1,1,3,3,-1,3,11684908581,-0.469238,0.39502,0.786621,11684908581,4.0625,-3.75,2.4375,11684908581,0.0310669,0.311279,0.507507,0.802795,0.426887,0.487314,1.23507
11684909477,2,-3,1,1,4,1,-1,1,11684908581,-0.469238,0.39502,0.786621,11684908581,4.0625,-3.75,2.4375,11684908581,0.0310669,0.311279,0.507507,0.802795,0.426887,0.487314,1.23507
11684930398,-2,-1,1,0,-3,-4,-3,1,11684908581,-0.469238,0.39502,0.786621,11684908581,4.0625,-3.75,2.4375,11684908581,0.0310669,0.311279,0.507507,0.802795,0.426887,0.487314,1.23507
11684930398,-2,-1,-5,-1,3,2,-2,-2,11684931173,-0.465332,0.388184,0.794922,11684931173,0.75,-3.125,1.0625,11684931173,0.0317383,0.311035,0.50769,0.802795,0.427756,0.486086,1.2354
11684931896,0,-3,-3,0,-8,-12,-2,1,11684931173,-0.465332,0.388184,0.794922,11684931173,0.75,-3.125,1.0625,11684931173,0.0317383,0.311035,0.50769,0.802795,0.427756,0.486086,1.2354
11684931896,-3,-1,1,1,-7,6,1,-2,11684931173,-0.465332,0.388184,0.794922,11684931173,0.75,-3.125,1.0625,11684931173,0.0317383,0.311035,0.50769,0.802795,0.427756,0.486086,1.2354
11684944118,0,-1,-2,-2,-9,-6,-4,0,11684931173,-0.465332,0.388184,0.794922,11684931173,0.75,-3.125,1.0625,11684931173,0.0317383,0.311035,0.50769,0.802795,0.427756,0.486086,1.2354
11684944118,-2,-1,-2,-3,10,8,1,2,11684952295,-0.458984,0.362305,0.822754,11684952295,-2.9375,-2.6875,1.5,11684952295,0.0316162,0.310181,0.508057,0.802856,0.426395,0.484692,1.23525
11684953011,2,-1,0,-1,-6,4,-2,-1,11684952295,-0.458984,0.362305,0.822754,11684952295,-2.9375,-2.6875,1.5,11684952295,0.0316162,0.310181,0.508057,0.802856,0.426395,0.484692,1.23525
11684953011,-1,-1,-5,-2,9,-8,-4,-4,11684952295,-0.458984,0.362305,0.822754,11684952295,-2.9375,-2.6875,1.5,11684952295,0.0316162,0.310181,0.508057,0.802856,0.426395,0.484692,1.23525
11684967937,-1,-1,0,-2,-2,-2,-2,0,11684952295,-0.458984,0.362305,0.822754,11684952295,-2.9375,-2.6875,1.5,11684952295,0.0316162,0.310181,0.508057,0.802856,0.426395,0.484692,1.23525
11684967937,0,-2,0,2,-3,-4,1,-1,11684968630,-0.464355,0.356445,0.847656,11684968630,-6,-2.375,1.4375,11684968630,0.0310059,0.309021,0.508606,0.802979,0.423826,0.483335,1.23512
11684969369,-1,2,2,0,5,9,2,1,11684968630,-0.464355,0.356445,0.847656,11684968630,-6,-2.375,1.4375,11684968630,0.0310059,0.309021,0.508606,0.802979,0.423826,0.483335,1.23512
11684969369,1,-1,1,0,0,1,-1,-2,11684968630,-0.464355,0.356445,0.847656,11684968630,-6,-2.375,1.4375,11684968630,0.0310059,0.309021,0.508606,0.802979,0.423826,0.483335,1.23512
11684990535,0,-2,-2,0,9,4,2,-3,11684968630,-0.464355,0.356445,0.847656,11684968630,-6,-2.375,1.4375,11684968630,0.0310059,0.309021,0.508606,0.802979,0.423826,0.483335,1.23512
11684990535,-2,1,-3,1,1,-2,0,-1,11684991119,-0.474121,0.362305,0.822266,11684991119,-3.25,-2.875,0.5,11684991119,0.0307617,0.308289,0.50885,0.803101,0.422385,0.482356,1.2348
11684991952,-1,-1,0,-1,-2,-1,0,-1,11684991119,-0.474121,0.362305,0.822266,11684991119,-3.25,-2.875,0.5,11684991119,0.0307617,0.308289,0.50885,0.803101,0.422385,0.482356,1.2348
11684991952,-1,-2,-2,1,2,2,0,-1,11684991119,-0.474121,0.362305,0.822266,11684991119,-3.25,-2.875,0.5,11684991119,0.0307617,0.308289,0.50885,0.803101,0.422385,0.482356,1.2348
11685003931,1,0,-1,-3,1,2,2,-1,11684991119,-0.474121,0.362305,0.822266,11684991119,-3.25,-2.875,0.5,11684991119,0.0307617,0.308289,0.50885,0.803101,0.422385,0.482356,1.2348
11685003931,-2,0,2,0,-3,-4,-2,1,11685012338,-0.461426,0.380371,0.806641,11685012338,-0.1875,-1.0625,1.875,11685012338,0.0310669,0.308167,0.509155,0.802979,0.422895,0.481677,1.23551
11685012964,0,-2,-1,-2,0,-1,0,-2,11685012338,-0.461426,0.380371,0.806641,11685012338,-0.1875,-1.0625,1.875,11685012338,0.0310669,0.308167,0.509155,0.802979,0.422895,0.481677,1.23551
11685012964,-3,1,0,-1,0,-5,-4,-1,11685012338,-0.461426,0.380371,0.806641,11685012338,-0.1875,-1.0625,1.875,11685012338,0.0310669,0.308167,0.509155,0.802979,0.422895,0.481677,1.23551
11685027858,1,0,-4,2,7,7,0,-1,11685012338,-0.461426,0.380371,0.806641,11685012338,-0.1875,-1.0625,1.875,11685012338,0.0310669,0.308167,0.509155,0.802979,0.422895,0.481677,1.23551
11685027858,-2,-3,-3,-3,-10,-6,-1,4,11685028649,-0.450684,0.35498,0.827148,11685028649,-1.25,3.0625,1.625,11685028649,0.0307007,0.308228,0.509521,0.802734,0.422584,0.482014,1.23643
11685029416,-1,-3,1,-2,6,9,1,-3,11685028649,-0.450684,0.35498,0.827148,11685028649,-1.25,3.0625,1.625,11685028649,0.0307007,0.308228,0.509521,0.802734,0.422584,0.482014,1.23643
11685029416,0,2,-2,0,0,3,2,8,11685028649,-0.450684,0.35498,0.827148,11685028649,-1.25,3.0625,1.625,11685028649,0.0307007,0.308228,0.509521,0.802734,0.422584,0.482014,1.23643
11685049724,-1,-3,-2,-2,-7,-13,-6,-8,11685028649,-0.450684,0.35498,0.827148,11685028649,-1.25,3.0625,1.625,11685028649,0.0307007,0.308228,0.509521,0.802734,0.422584,0.482014,1.23643
11685049724,0,0,4,0,6,7,-2,3,11685050609,-0.459961,0.339355,0.834473,11685050609,1.8125,4.1875,2.3125,11685050609,0.0305176,0.308594,0.509766,0.802429,0.423001,0.482659,1.23744
11685056673,-2,-3,-5,-5,-8,-10,-3,0,11685050609,-0.459961,0.339355,0.834473,11685050609,1.8125,4.1875,2.3125,11685050609,0.0305176,0.308594,0.509766,0.802429,0.423001,0.482659,1.23744
11685056673,-1,-2,-2,0,2,4,-2,-1,11685050609,-0.459961,0.339355,0.834473,11685050609,1.8125,4.1875,2.3125,11685050609,0.0305176,0.308594,0.509766,0.802429,0.423001,0.482659,1.23744
11685072833,3,1,3,3,7,3,1,2,11685050609,-0.459961,0.339355,0.834473,11685050609,1.8125,4.1875,2.3125,11685050609,0.0305176,0.308594,0.509766,0.802429,0.423001,0.482659,1.23744
11685072833,0,-1,-4,-5,-21,-10,-2,-3,11685073615,-0.46875,0.34082,0.834961,11685073615,3.875,5.1875,3.5625,11685073615,0.0305176,0.309387,0.510071,0.801941,0.424453,0.483734,1.23916
11685074402,-5,-1,-1,1,9,5,0,1,11685073615,-0.46875,0.34082,0.834961,11685073615,3.875,5.1875,3.5625,11685073615,0.0305176,0.309387,0.510071,0.801941,0.424453,0.483734,1.23916
11685074402,-3,-3,0,-1,3,-3,-1,-4,11685073615,-0.46875,0.34082,0.834961,11685073615,3.875,5.1875,3.5625,11685073615,0.0305176,0.309387,0.510071,0.801941,0.424453,0.483734,1.23916
11685095296,-3,-2,-1,1,-7,1,-3,-3,11685073615,-0.46875,0.34082,0.834961,11685073615,3.875,5.1875,3.5625,11685073615,0.0305176,0.309387,0.510071,0.801941,0.424453,0.483734,1.23916
11685095296,0,-3,4,2,10,2,0,-1,11685096057,-0.466797,0.364258,0.80957,11685096057,6.3125,5.0625,4.125,11685096057,0.0311279,0.310608,0.510376,0.80127,0.427635,0.48475,1.24154
11685096924,1,2,-1,1,5,-11,-1,-2,11685096057,-0.466797,0.364258,0.80957,11685096057,6.3125,5.0625,4.125,11685096057,0.0311279,0.310608,0.510376,0.80127,0.427635,0.48475,1.24154
11685096924,-1,1,1,1,-4,6,1,-3,11685096057,-0.466797,0.364258,0.80957,11685096057,6.3125,5.0625,4.125,11685096057,0.0311279,0.310608,0.510376,0.80127,0.427635,0.48475,1.24154
11685109643,1,-3,-2,-6,-12,-1,-2,-5,11685096057,-0.466797,0.364258,0.80957,11685096057,6.3125,5.0625,4.125,11685096057,0.0311279,0.310608,0.510376,0.80127,0.427635,0.48475,1.24154
11685109643,0,1,-5,-2,1,-2,-1,2,11685110447,-0.486328,0.369629,0.791504,11685110447,9.4375,4.8125,3.375,11685110447,0.0321045,0.312317,0.510254,0.800598,0.431975,0.486254,1.24349
11685116482,1,-1,3,3,-1,-3,-2,0,11685110447,-0.486328,0.369629,0.791504,11685110447,9.4375,4.8125,3.375,11685110447,0.0321045,0.312317,0.510254,0.800598,0.431975,0.486254,1.24349
11685116482,-1,1,1,-2,4,2,-1,0,11685110447,-0.486328,0.369629,0.791504,11685110447,9.4375,4.8125,3.375,11685110447,0.0321045,0.312317,0.510254,0.800598,0.431975,0.486254,1.24349
11685132983,2,-3,-3,0,-9,-9,-2,1,11685110447,-0.486328,0.369629,0.791504,11685110447,9.4375,4.8125,3.375,11685110447,0.0321045,0.312317,0.510254,0.800598,0.431975,0.486254,1.24349
11685132983,-2,-1,-3,-1,-7,4,-2,-2,11685133611,-0.487793,0.399414,0.793457,11685133611,8.0625,3.5,4.6875,11685133611,0.0333252,0.313843,0.510437,0.799805,0.436629,0.487032,1.24607
11685134428,-2,-3,-3,-1,4,4,0,-1,11685133611,-0.487793,0.399414,0.793457,11685133611,8.0625,3.5,4.6875,11685133611,0.0333252,0.313843,0.510437,0.799805,0.436629,0.487032,1.24607
11685134428,0,-2,0,0,1,-8,1,0,11685133611,-0.487793,0.399414,0.793457,11685133611,8.0625,3.5,4.6875,11685133611,0.0333252,0.313843,0.510437,0.799805,0.436629,0.487032,1.24607
11685155312,-1,0,3,-2,1,-7,-2,0,11685133611,-0.487793,0.399414,0.793457,11685133611,8.0625,3.5,4.6875,11685133611,0.0333252,0.313843,0.510437,0.799805,0.436629,0.487032,1.24607
11685155312,-3,-1,-3,-3,0,6,-3,-4,11685156090,-0.477539,0.403809,0.796875,11685156090,1.25,2.5625,5.9375,11685156090,0.0338135,0.314514,0.51123,0.799011,0.439025,0.487058,1.249
11685156877,-1,-1,-3,-1,-4,-5,-2,-3,11685156090,-0.477539,0.403809,0.796875,11685156090,1.25,2.5625,5.9375,11685156090,0.0338135,0.314514,0.51123,0.799011,0.439025,0.487058,1.249
11685156877,-2,-1,2,3,11,1,-1,-1,11685156090,-0.477539,0.403809,0.796875,11685156090,1.25,2.5625,5.9375,11685156090,0.0338135,0.314514,0.51123,0.799011,0.439025,0.487058,1.249
11685169612,0,-1,1,-6,-27,-3,-1,3,11685156090,-0.477539,0.403809,0.796875,11685156090,1.25,2.5625,5.9375,11685156090,0.0338135,0.314514,0.51123,0.799011,0.439025,0.487058,1.249
11685169612,0,-2,-1,4,15,-2,1,-1,11685170403,-0.467285,0.384277,0.80957,11685170403,-3.3125,0.9375,5.5625,11685170403,0.0336304,0.314331,0.512207,0.798523,0.439006,0.486517,1.25124
11685176398,1,0,-2,-1,-20,-2,0,-4,11685170403,-0.467285,0.384277,0.80957,11685170403,-3.3125,0.9375,5.5625,11685170403,0.0336304,0.314331,0.512207,0.798523,0.439006,0.486517,1.25124
11685176398,-1,-3,-5,-2,3,2,-3,-1,11685170403,-0.467285,0.384277,0.80957,11685170403,-3.3125,0.9375,5.5625,11685170403,0.0336304,0.314331,0.512207,0.798523,0.439006,0.486517,1.25124
11685192745,-2,3,0,1,2,-4,0,0,11685170403,-0.467285,0.384277,0.80957,11685170403,-3.3125,0.9375,5.5625,11685170403,0.0336304,0.314331,0.512207,0.798523,0.439006,0.486517,1.25124
11685192745,-3,-1,1,-2,4,-4,-2,-2,11685193567,-0.463867,0.368652,0.809082,11685193567,-1.6875,0.0625,3.8125,11685193567,0.0335693,0.314026,0.512878,0.798218,0.438809,0.485769,1.25255
11685194376,1,-2,-1,-1,-4,-3,2,1,11685193567,-0.463867,0.368652,0.809082,11685193567,-1.6875,0.0625,3.8125,11685193567,0.0335693,0.314026,0.512878,0.798218,0.438809,0.485769,1.25255
11685194376,-1,-2,-5,-2,-2,1,0,-2,11685198954,-0.475098,0.381836,0.806641,11685198954,2.75,-1.125,1.5,11685198954,0.0341187,0.314148,0.512939,0.798096,0.439974,0.48526,1.25296
11685214551,-2,-1,-3,0,7,3,0,3,11685198954,-0.475098,0.381836,0.806641,11685198954,2.75,-1.125,1.5,11685198954,0.0341187,0.314148,0.512939,0.798096,0.439974,0.48526,1.25296
11685214551,0,-2,1,-1,-6,-2,-1,0,11685198954,-0.475098,0.381836,0.806641,11685198954,2.75,-1.125,1.5,11685198954,0.0341187,0.314148,0.512939,0.798096,0.439974,0.48526,1.25296
11685215412,-2,1,-2,-3,4,3,-1,-1,11685198954,-0.475098,0.381836,0.806641,11685198954,2.75,-1.125,1.5,11685198954,0.0341187,0.314148,0.512939,0.798096,0.439974,0.48526,1.25296
11685215412,0,-3,-2,-1,-4,-7,-1,1,11685221460,-0.479492,0.388672,0.79834,11685221460,4.3125,-1.5,0.875,11685221460,0.0349121,0.314514,0.512756,0.798035,0.441806,0.484972,1.25312
11685228868,-1,0,0,1,3,6,-1,1,11685221460,-0.479492,0.388672,0.79834,11685221460,4.3125,-1.5,0.875,11685221460,0.0349121,0.314514,0.512756,0.798035,0.441806,0.484972,1.25312
11685228868,-1,1,-2,-1,0,0,-1,-2,11685221460,-0.479492,0.388672,0.79834,11685221460,4.3125,-1.5,0.875,11685221460,0.0349121,0.314514,0.512756,0.798035,0.441806,0.484972,1.25312
11685236387,-1,-2,0,2,10,5,-1,0,11685221460,-0.479492,0.388672,0.79834,11685221460,4.3125,-1.5,0.875,11685221460,0.0349121,0.314514,0.512756,0.798035,0.441806,0.484972,1.25312
11685236387,0,-1,-2,-5,-15,2,-3,-3,11685243998,-0.477539,0.395996,0.798828,11685243998,1.875,0.3125,2.5,11685243998,0.0354004,0.31488,0.513,0.797729,0.443377,0.48483,1.25429
11685251853,-2,-2,-4,1,9,-5,0,0,11685243998,-0.477539,0.395996,0.798828,11685243998,1.875,0.3125,2.5,11685243998,0.0354004,0.31488,0.513,0.797729,0.443377,0.48483,1.25429
11685251853,2,1,2,1,2,-13,-1,-2,11685243998,-0.477539,0.395996,0.798828,11685243998,1.875,0.3125,2.5,11685243998,0.0354004,0.31488,0.513,0.797729,0.443377,0.48483,1.25429
11685259782,0,0,-1,0,-5,4,-2,-3,11685243998,-0.477539,0.395996,0.798828,11685243998,1.875,0.3125,2.5,11685243998,0.0354004,0.31488,0.513,0.797729,0.443377,0.48483,1.25429
11685259782,-3,-1,-3,2,11,-5,-1,0,11685260498,-0.478027,0.381348,0.808105,11685260498,-1.5625,1.1875,3.6875,11685260498,0.0352173,0.314941,0.513611,0.797302,0.443529,0.4848,1.25587
11685274755,-1,-3,1,-3,-15,3,0,0,11685260498,-0.478027,0.381348,0.808105,11685260498,-1.5625,1.1875,3.6875,11685260498,0.0352173,0.314941,0.513611,0.797302,0.443529,0.4848,1.25587
11685274755,0,-1,-2,-2,0,3,1,-3,11685260498,-0.478027,0.381348,0.808105,11685260498,-1.5625,1.1875,3.6875,11685260498,0.0352173,0.314941,0.513611,0.797302,0.443529,0.4848,1.25587
11685275495,-2,0,0,2,7,2,-1,0,11685260498,-0.478027,0.381348,0.808105,11685260498,-1.5625,1.1875,3.6875,11685260498,0.0352173,0.314941,0.513611,0.797302,0.443529,0.4848,1.25587
11685275495,0,0,0,-1,-5,-1,-1,-5,11685281690,-0.463867,0.380859,0.810547,11685281690,-3.0625,1.375,3.0625,11685281690,0.0348511,0.314758,0.514221,0.796997,0.442975,0.484629,1.25712
11685289029,0,0,-4,3,3,-2,0,-1,11685281690,-0.463867,0.380859,0.810547,11685281690,-3.0625,1.375,3.0625,11685281690,0.0348511,0.314758,0.514221,0.796997,0.442975,0.484629,1.25712
11685289029,-1,0,-2,-2,-3,-1,-2,0,11685281690,-0.463867,0.380859,0.810547,11685281690,-3.0625,1.375,3.0625,11685281690,0.0348511,0.314758,0.514221,0.796997,0.442975,0.484629,1.25712
11685296618,-3,-3,1,0,-4,0,-1,1,11685281690,-0.463867,0.380859,0.810547,11685281690,-3.0625,1.375,3.0625,11685281690,0.0348511,0.314758,0.514221,0.796997,0.442975,0.484629,1.25712
11685296618,1,-1,-2,0,1,0,-1,0,11685304189,-0.456055,0.375488,0.819336,11685304189,-0.5,0.875,3.125,11685304189,0.0349121,0.314575,0.514771,0.796753,0.44311,0.484012,1.25831
11685312236,0,1,0,-2,-8,-11,0,-1,11685304189,-0.456055,0.375488,0.819336,11685304189,-0.5,0.875,3.125,11685304189,0.0349121,0.314575,0.514771,0.796753,0.44311,0.484012,1.25831
11685312236,-2,-4,-1,-1,3,6,-1,-2,11685304189,-0.456055,0.375488,0.819336,11685304189,-0.5,0.875,3.125,11685304189,0.0349121,0.314575,0.514771,0.796753,0.44311,0.484012,1.25831
11685312987,1,2,-1,-2,-2,-3,-2,-1,11685304189,-0.456055,0.375488,0.819336,11685304189,-0.5,0.875,3.125,11685304189,0.0349121,0.314575,0.514771,0.796753,0.44311,0.484012,1.25831
11685312987,-1,-2,2,-2,-4,-4,-2,1,11685319203,-0.451172,0.385742,0.812012,11685319203,2.1875,0.3125,3.125,11685319203,0.0354614,0.314636,0.515137,0.796448,0.444355,0.483237,1.25942
11685334707,-1,1,0,-1,8,6,1,0,11685319203,-0.451172,0.385742,0.812012,11685319203,2.1875,0.3125,3.125,11685319203,0.0354614,0.314636,0.515137,0.796448,0.444355,0.483237,1.25942
11685334707,-3,-3,-6,0,16,3,1,-2,11685319203,-0.451172,0.385742,0.812012,11685319203,2.1875,0.3125,3.125,11685319203,0.0354614,0.314636,0.515137,0.796448,0.444355,0.483237,1.25942
11685335462,-3,-1,-2,-2,-32,-3,0,-1,11685319203,-0.451172,0.385742,0.812012,11685319203,2.1875,0.3125,3.125,11685319203,0.0354614,0.314636,0.515137,0.796448,0.444355,0.483237,1.25942
11685335462,-1,0,0,-2,-1,3,-2,-1,11685341680,-0.467285,0.384277,0.808594,11685341680,0.8125,2,2.0625,11685341680,0.0355225,0.314941,0.515381,0.796143,0.4451,0.483478,1.26042
11685357289,0,-2,1,1,10,-1,-1,0,11685341680,-0.467285,0.384277,0.808594,11685341680,0.8125,2,2.0625,11685341680,0.0355225,0.314941,0.515381,0.796143,0.4451,0.483478,1.26042
11685357289,-2,-1,-2,-2,-4,-1,-2,1,11685341680,-0.467285,0.384277,0.808594,11685341680,0.8125,2,2.0625,11685341680,0.0355225,0.314941,0.515381,0.796143,0.4451,0.483478,1.26042
11685357944,1,0,-1,1,3,-4,-1,-2,11685341680,-0.467285,0.384277,0.808594,11685341680,0.8125,2,2.0625,11685341680,0.0355225,0.314941,0.515381,0.796143,0.4451,0.483478,1.26042
11685357944,-1,-1,-2,-4,-1,0,1,0,11685364207,-0.482422,0.381836,0.791016,11685364207,0.125,3,3.625,11685364207,0.0354004,0.315552,0.515869,0.795593,0.446184,0.484287,1.26239
11685372277,-3,1,-1,2,8,5,-3,-4,11685364207,-0.482422,0.381836,0.791016,11685364207,0.125,3,3.625,11685364207,0.0354004,0.315552,0.515869,0.795593,0.446184,0.484287,1.26239
11685372277,1,1,0,-3,-16,0,0,-1,11685364207,-0.482422,0.381836,0.791016,11685364207,0.125,3,3.625,11685364207,0.0354004,0.315552,0.515869,0.795593,0.446184,0.484287,1.26239
11685372993,-1,-3,-2,-3,9,-1,-2,0,11685364207,-0.482422,0.381836,0.791016,11685364207,0.125,3,3.625,11685364207,0.0354004,0.315552,0.515869,0.795593,0.446184,0.484287,1.26239
11685372993,2,3,2,0,-12,-7,1,-1,11685379195,-0.472656,0.369629,0.808105,11685379195,-1.4375,4.0625,6.0625,11685379195,0.0349731,0.315857,0.516785,0.794922,0.446512,0.484783,1.26502
11685394773,-5,-4,1,-2,6,5,0,-2,11685379195,-0.472656,0.369629,0.808105,11685379195,-1.4375,4.0625,6.0625,11685379195,0.0349731,0.315857,0.516785,0.794922,0.446512,0.484783,1.26502
11685394773,-1,0,-2,-2,-5,-7,-4,-1,11685379195,-0.472656,0.369629,0.808105,11685379195,-1.4375,4.0625,6.0625,11685379195,0.0349731,0.315857,0.516785,0.794922,0.446512,0.484783,1.26502
11685395509,0,-2,-3,0,-3,-2,0,-3,11685379195,-0.472656,0.369629,0.808105,11685379195,-1.4375,4.0625,6.0625,11685379195,0.0349731,0.315857,0.516785,0.794922,0.446512,0.484783,1.26502
11685395509,1,-1,-1,4,4,2,1,-1,11685401635,-0.460938,0.37207,0.808105,11685401635,-1.625,3.875,7.5625,11685401635,0.034729,0.31604,0.517944,0.794067,0.447093,0.484695,1.26813
11685409073,-1,-1,-2,0,3,3,-3,-1,11685401635,-0.460938,0.37207,0.808105,11685401635,-1.625,3.875,7.5625,11685401635,0.034729,0.31604,0.517944,0.794067,0.447093,0.484695,1.26813
11685409073,-1,-1,-2,-3,-11,-9,0,-3,11685401635,-0.460938,0.37207,0.808105,11685401635,-1.625,3.875,7.5625,11685401635,0.034729,0.31604,0.517944,0.794067,0.447093,0.484695,1.26813
11685416614,-1,-1,0,-1,0,1,-2,-1,11685401635,-0.460938,0.37207,0.808105,11685401635,-1.625,3.875,7.5625,11685401635,0.034729,0.31604,0.517944,0.794067,0.447093,0.484695,1.26813
11685416614,-2,-2,-3,-1,6,-2,-1,-2,11685424187,-0.470215,0.377441,0.806152,11685424187,1.3125,2.375,6.9375,11685424187,0.0350342,0.316406,0.51886,0.793335,0.448758,0.484399,1.27099
11685432292,0,1,-2,-6,-7,-3,0,-1,11685424187,-0.470215,0.377441,0.806152,11685424187,1.3125,2.375,6.9375,11685424187,0.0350342,0.316406,0.51886,0.793335,0.448758,0.484399,1.27099
11685432292,-2,-2,4,1,3,7,-1,2,11685424187,-0.470215,0.377441,0.806152,11685424187,1.3125,2.375,6.9375,11685424187,0.0350342,0.316406,0.51886,0.793335,0.448758,0.484399,1.27099
11685432936,1,0,0,-3,0,-4,-1,-1,11685424187,-0.470215,0.377441,0.806152,11685424187,1.3125,2.375,6.9375,11685424187,0.0350342,0.316406,0.51886,0.793335,0.448758,0.484399,1.27099
11685432936,-2,-3,1,-1,-3,3,-2,-2,11685439258,-0.473633,0.390137,0.807617,11685439258,3.875,2.0625,6,11685439258,0.0357056,0.316956,0.51947,0.792664,0.451156,0.484066,1.27335
11685463009,-2,-1,-3,-2,2,-1,0,-2,11685439258,-0.473633,0.390137,0.807617,11685439258,3.875,2.0625,6,11685439258,0.0357056,0.316956,0.51947,0.792664,0.451156,0.484066,1.27335
11685463009,-2,-1,-3,-1,-1,0,2,-1,11685439258,-0.473633,0.390137,0.807617,11685439258,3.875,2.0625,6,11685439258,0.0357056,0.316956,0.51947,0.792664,0.451156,0.484066,1.27335
11685463742,-1,-1,1,-2,1,-6,0,0,11685439258,-0.473633,0.390137,0.807617,11685439258,3.875,2.0625,6,11685439258,0.0357056,0.316956,0.51947,0.792664,0.451156,0.484066,1.27335
11685463742,-2,0,-3,-2,-13,0,-1,1,11685464471,-0.463867,0.408203,0.79248,11685464471,5.1875,2.25,6.5625,11685464471,0.0367432,0.31781,0.520142,0.791809,0.454709,0.48371,1.27633
11685469083,2,0,0,1,-6,-8,-2,1,11685464471,-0.463867,0.408203,0.79248,11685464471,5.1875,2.25,6.5625,11685464471,0.0367432,0.31781,0.520142,0.791809,0.454709,0.48371,1.27633
11685469083,-1,1,2,2,7,3,-2,0,11685464471,-0.463867,0.408203,0.79248,11685464471,5.1875,2.25,6.5625,11685464471,0.0367432,0.31781,0.520142,0.791809,0.454709,0.48371,1.27633
11685476498,-3,-2,-2,1,3,-4,-1,-2,11685464471,-0.463867,0.408203,0.79248,11685464471,5.1875,2.25,6.5625,11685464471,0.0367432,0.31781,0.520142,0.791809,0.454709,0.48371,1.27633
11685476498,0,1,1,-2,1,-6,-1,0,11685484223,-0.474609,0.425781,0.803223,11685484223,-0.6875,2.3125,4.625,11685484223,0.0369873,0.318237,0.520874,0.791199,0.456267,0.483687,1.2788
11685492407,0,-3,-4,-6,-19,3,-2,-2,11685484223,-0.474609,0.425781,0.803223,11685484223,-0.6875,2.3125,4.625,11685484223,0.0369873,0.318237,0.520874,0.791199,0.456267,0.483687,1.2788
11685492407,0,-1,-2,1,-3,-7,-1,-3,11685484223,-0.474609,0.425781,0.803223,11685484223,-0.6875,2.3125,4.625,11685484223,0.0369873,0.318237,0.520874,0.791199,0.456267,0.483687,1.2788
11685492904,-2,2,0,0,4,0,0,2,11685484223,-0.474609,0.425781,0.803223,11685484223,-0.6875,2.3125,4.625,11685484223,0.0369873,0.318237,0.520874,0.791199,0.456267,0.483687,1.2788
11685492904,0,-1,0,-3,1,-1,-3,-2,11685499022,-0.474121,0.40625,0.796387,11685499022,-2.8125,2.25,5.25,11685499022,0.0368042,0.31842,0.52179,0.790527,0.45681,0.483671,1.28133
11685514789,-3,0,-3,0,2,-1,-1,1,11685499022,-0.474121,0.40625,0.796387,11685499022,-2.8125,2.25,5.25,11685499022,0.0368042,0.31842,0.52179,0.790527,0.45681,0.483671,1.28133
11685514789,2,-2,-1,-1,-2,-3,-1,0,11685499022,-0.474121,0.40625,0.796387,11685499022,-2.8125,2.25,5.25,11685499022,0.0368042,0.31842,0.52179,0.790527,0.45681,0.483671,1.28133
11685515530,0,0,-3,-5,0,1,-2,-3,11685499022,-0.474121,0.40625,0.796387,11685499022,-2.8125,2.25,5.25,11685499022,0.0368042,0.31842,0.52179,0.790527,0.45681,0.483671,1.28133
11685515530,0,0,-1,2,0,-1,2,1,11685521740,-0.452148,0.391602,0.808105,11685521740,-0.8125,2,4.1875,11685521740,0.0368042,0.318359,0.522461,0.790039,0.457104,0.483155,1.28294
11685529099,-1,-1,-2,-1,2,-1,0,-2,11685521740,-0.452148,0.391602,0.808105,11685521740,-0.8125,2,4.1875,11685521740,0.0368042,0.318359,0.522461,0.790039,0.457104,0.483155,1.28294
11685529099,0,-3,-3,-2,2,-4,0,0,11685521740,-0.452148,0.391602,0.808105,11685521740,-0.8125,2,4.1875,11685521740,0.0368042,0.318359,0.522461,0.790039,0.457104,0.483155,1.28294
11685536601,-1,-2,1,-1,-12,3,0,-1,11685521740,-0.452148,0.391602,0.808105,11685521740,-0.8125,2,4.1875,11685521740,0.0368042,0.318359,0.522461,0.790039,0.457104,0.483155,1.28294
11685536601,-4,-1,0,1,3,-4,-1,-3,11685544177,-0.46875,0.390137,0.803223,11685544177,1.625,1.75,2,11685544177,0.0369263,0.318726,0.522644,0.789795,0.458029,0.483473,1.2839
11685560502,2,1,-1,1,2,0,0,-1,11685544177,-0.46875,0.390137,0.803223,11685544177,1.625,1.75,2,11685544177,0.0369263,0.318726,0.522644,0.789795,0.458029,0.483473,1.2839
11685560502,-2,0,0,-2,-2,-1,-2,-2,11685544177,-0.46875,0.390137,0.803223,11685544177,1.625,1.75,2,11685544177,0.0369263,0.318726,0.522644,0.789795,0.458029,0.483473,1.2839
11685561170,0,0,1,1,5,3,-2,0,11685544177,-0.46875,0.390137,0.803223,11685544177,1.625,1.75,2,11685544177,0.0369263,0.318726,0.522644,0.789795,0.458029,0.483473,1.2839
11685561170,-2,-1,-3,-2,4,0,-1,-3,11685561968,-0.491699,0.399414,0.794434,11685561968,2.75,0.8125,0.3125,11685561968,0.0371704,0.319336,0.522461,0.789673,0.459345,0.484201,1.28426
11685574649,0,-2,1,2,-10,-3,0,1,11685561968,-0.491699,0.399414,0.794434,11685561968,2.75,0.8125,0.3125,11685561968,0.0371704,0.319336,0.522461,0.789673,0.459345,0.484201,1.28426
11685574649,-3,0,2,-2,3,2,1,0,11685561968,-0.491699,0.399414,0.794434,11685561968,2.75,0.8125,0.3125,11685561968,0.0371704,0.319336,0.522461,0.789673,0.459345,0.484201,1.28426
11685575431,-2,-3,1,1,3,0,0,-3,11685561968,-0.491699,0.399414,0.794434,11685561968,2.75,0.8125,0.3125,11685561968,0.0371704,0.319336,0.522461,0.789673,0.459345,0.484201,1.28426
11685575431,0,-3,-1,-3,-10,-11,-3,-1,11685581596,-0.476562,0.400879,0.786133,11685581596,2.5625,-0.0625,1.1875,11685581596,0.0375977,0.319702,0.522461,0.78949,0.460669,0.484218,1.2848
11685588973,-1,-2,-1,0,13,5,1,-1,11685581596,-0.476562,0.400879,0.786133,11685581596,2.5625,-0.0625,1.1875,11685581596,0.0375977,0.319702,0.522461,0.78949,0.460669,0.484218,1.2848
11685588973,-2,-2,-3,-2,-6,0,-2,-1,11685581596,-0.476562,0.400879,0.786133,11685581596,2.5625,-0.0625,1.1875,11685581596,0.0375977,0.319702,0.522461,0.78949,0.460669,0.484218,1.2848
11685596645,-2,-2,-1,0,4,0,-2,-1,11685581596,-0.476562,0.400879,0.786133,11685581596,2.5625,-0.0625,1.1875,11685581596,0.0375977,0.319702,0.522461,0.78949,0.460669,0.484218,1.2848
11685596645,-1,0,-2,-3,-2,-3,0,-1,11685604175,-0.46582,0.419434,0.790527,11685604175,1.5,-1.25,0.9375,11685604175,0.038208,0.319824,0.522522,0.789368,0.461928,0.483622,1.28523
11685612295,-3,1,-5,0,-1,-1,-2,0,11685604175,-0.46582,0.419434,0.790527,11685604175,1.5,-1.25,0.9375,11685604175,0.038208,0.319824,0.522522,0.789368,0.461928,0.483622,1.28523
11685612295,1,-1,0,0,-6,-1,0,-2,11685604175,-0.46582,0.419434,0.790527,11685604175,1.5,-1.25,0.9375,11685604175,0.038208,0.319824,0.522522,0.789368,0.461928,0.483622,1.28523
11685612994,0,0,-1,-4,0,-2,0,0,11685604175,-0.46582,0.419434,0.790527,11685604175,1.5,-1.25,0.9375,11685604175,0.038208,0.319824,0.522522,0.789368,0.461928,0.483622,1.28523
11685612994,-2,-1,-2,2,1,5,1,-4,11685619197,-0.480957,0.411621,0.785156,11685619197,-0.4375,-1.375,-0.625,11685619197,0.0383301,0.319824,0.522461,0.789429,0.462098,0.483527,1.2851
11685634744,-1,-2,-2,-1,4,-6,-1,0,11685619197,-0.480957,0.411621,0.785156,11685619197,-0.4375,-1.375,-0.625,11685619197,0.0383301,0.319824,0.522461,0.789429,0.462098,0.483527,1.2851
11685634744,-2,-1,4,2,-7,0,-1,-2,11685619197,-0.480957,0.411621,0.785156,11685619197,-0.4375,-1.375,-0.625,11685619197,0.0383301,0.319824,0.522461,0.789429,0.462098,0.483527,1.2851
11685635444,-1,1,-4,0,3,0,-2,1,11685619197,-0.480957,0.411621,0.785156,11685619197,-0.4375,-1.375,-0.625,11685619197,0.0383301,0.319824,0.522461,0.789429,0.462098,0.483527,1.2851
11685635444,1,-2,-2,-4,-4,-1,-1,1,11685641675,-0.473145,0.397949,0.789551,11685641675,-1.25,-1.8125,0.125,11685641675,0.038269,0.31958,0.522461,0.78949,0.461585,0.483208,1.28477
11685649133,0,-2,-2,-2,-2,-1,-2,-3,11685641675,-0.473145,0.397949,0.789551,11685641675,-1.25,-1.8125,0.125,11685641675,0.038269,0.31958,0.522461,0.78949,0.461585,0.483208,1.28477
11685649133,-3,-4,-3,2,13,9,-2,-1,11685641675,-0.473145,0.397949,0.789551,11685641675,-1.25,-1.8125,0.125,11685641675,0.038269,0.31958,0.522461,0.78949,0.461585,0.483208,1.28477
11685656509,-1,-1,1,1,-10,-5,1,1,11685641675,-0.473145,0.397949,0.789551,11685641675,-1.25,-1.8125,0.125,11685641675,0.038269,0.31958,0.522461,0.78949,0.461585,0.483208,1.28477
11685656509,-2,0,-1,-1,-3,-3,0,0,11685664213,-0.461914,0.392578,0.808594,11685664213,-0.9375,-1.875,-0.4375,11685664213,0.0383301,0.319092,0.522522,0.789673,0.460912,0.482392,1.28432
11685672325,-1,0,-2,-2,-2,-1,0,-4,11685664213,-0.461914,0.392578,0.808594,11685664213,-0.9375,-1.875,-0.4375,11685664213,0.0383301,0.319092,0.522522,0.789673,0.460912,0.482392,1.28432
11685672325,-3,0,-2,1,-2,0,1,1,11685664213,-0.461914,0.392578,0.808594,11685664213,-0.9375,-1.875,-0.4375,11685664213,0.0383301,0.319092,0.522522,0.789673,0.460912,0.482392,1.28432
11685672931,-3,0,0,1,3,-2,0,0,11685664213,-0.461914,0.392578,0.808594,11685664213,-0.9375,-1.875,-0.4375,11685664213,0.0383301,0.319092,0.522522,0.789673,0.460912,0.482392,1.28432
11685672931,-1,-3,-2,-2,0,0,-2,-1,11685679204,-0.460938,0.398438,0.805664,11685679204,-0.8125,-2.375,-1.0625,11685679204,0.0383911,0.318665,0.5224,0.789917,0.460229,0.481745,1.28348
11685694820,-1,-1,1,-1,-10,-10,-3,-1,11685679204,-0.460938,0.398438,0.805664,11685679204,-0.8125,-2.375,-1.0625,11685679204,0.0383911,0.318665,0.5224,0.789917,0.460229,0.481745,1.28348
11685694820,2,1,-3,-2,17,2,2,-3,11685679204,-0.460938,0.398438,0.805664,11685679204,-0.8125,-2.375,-1.0625,11685679204,0.0383911,0.318665,0.5224,0.789917,0.460229,0.481745,1.28348
11685695429,-2,0,-5,-5,-23,-2,-3,-1,11685679204,-0.460938,0.398438,0.805664,11685679204,-0.8125,-2.375,-1.0625,11685679204,0.0383911,0.318665,0.5224,0.789917,0.460229,0.481745,1.28348
11685695429,-2,1,0,2,9,0,0,1,11685701736,-0.458984,0.400391,0.804688,11685701736,-1.0625,-2.1875,-1.625,11685701736,0.0384521,0.318176,0.522278,0.790161,0.459445,0.480988,1.28255
11685717763,-2,-3,-2,-1,1,9,1,-1,11685701736,-0.458984,0.400391,0.804688,11685701736,-1.0625,-2.1875,-1.625,11685701736,0.0384521,0.318176,0.522278,0.790161,0.459445,0.480988,1.28255
11685717763,-2,-3,-1,-1,-8,-8,-2,-1,11685701736,-0.458984,0.400391,0.804688,11685701736,-1.0625,-2.1875,-1.625,11685701736,0.0384521,0.318176,0.522278,0.790161,0.459445,0.480988,1.28255
11685718563,-2,-3,-3,0,6,-2,0,-1,11685701736,-0.458984,0.400391,0.804688,11685701736,-1.0625,-2.1875,-1.625,11685701736,0.0384521,0.318176,0.522278,0.790161,0.459445,0.480988,1.28255
11685718563,1,1,-1,-1,-9,-3,-2,1,11685724247,-0.465332,0.398926,0.80127,11685724247,0,-2,-2.125,11685724247,0.0385742,0.317932,0.521973,0.790466,0.459064,0.480655,1.28149
11685732275,-1,-2,1,-3,8,7,-1,0,11685724247,-0.465332,0.398926,0.80127,11685724247,0,-2,-2.125,11685724247,0.0385742,0.317932,0.521973,0.790466,0.459064,0.480655,1.28149
11685732275,1,-2,1,1,-9,-2,-1,-1,11685724247,-0.465332,0.398926,0.80127,11685724247,0,-2,-2.125,11685724247,0.0385742,0.317932,0.521973,0.790466,0.459064,0.480655,1.28149
11685732969,-2,-1,-2,-1,6,2,1,0,11685724247,-0.465332,0.398926,0.80127,11685724247,0,-2,-2.125,11685724247,0.0385742,0.317932,0.521973,0.790466,0.459064,0.480655,1.28149
11685732969,-2,0,-1,-2,-11,-3,-1,-3,11685739219,-0.470215,0.399902,0.793457,11685739219,-1.375,-1.625,-1.4375,11685739219,0.0384521,0.317749,0.521851,0.790649,0.458485,0.480614,1.28093
11685754649,-2,0,-1,1,6,6,0,-1,11685739219,-0.470215,0.399902,0.793457,11685739219,-1.375,-1.625,-1.4375,11685739219,0.0384521,0.317749,0.521851,0.790649,0.458485,0.480614,1.28093
11685754649,-1,0,-3,-4,-7,-4,1,2,11685739219,-0.470215,0.399902,0.793457,11685739219,-1.375,-1.625,-1.4375,11685739219,0.0384521,0.317749,0.521851,0.790649,0.458485,0.480614,1.28093
11685755470,-2,-1,-1,-2,-2,5,0,-2,11685739219,-0.470215,0.399902,0.793457,11685739219,-1.375,-1.625,-1.4375,11685739219,0.0384521,0.317749,0.521851,0.790649,0.458485,0.480614,1.28093
11685755470,0,-2,0,0,4,-1,-1,-2,11685769035,-0.466797,0.393555,0.786621,11685769035,-4.375,-1,0.375,11685769035,0.0379639,0.317322,0.522095,0.79071,0.457107,0.480449,1.28093
11685777068,0,0,-1,-1,-8,-12,1,-1,11685769035,-0.466797,0.393555,0.786621,11685769035,-4.375,-1,0.375,11685769035,0.0379639,0.317322,0.522095,0.79071,0.457107,0.480449,1.28093
11685777068,-1,-1,-3,0,8,7,-2,-2,11685769035,-0.466797,0.393555,0.786621,11685769035,-4.375,-1,0.375,11685769035,0.0379639,0.317322,0.522095,0.79071,0.457107,0.480449,1.28093
11685777851,0,0,-1,-4,-18,-16,-4,0,11685769035,-0.466797,0.393555,0.786621,11685769035,-4.375,-1,0.375,11685769035,0.0379639,0.317322,0.522095,0.79071,0.457107,0.480449,1.28093
11685777851,1,1,-2,-4,3,7,-1,2,11685783981,-0.469727,0.383301,0.809082,11685783981,-5.9375,-0.4375,1,11685783981,0.0371704,0.31665,0.522583,0.79071,0.454958,0.480146,1.28119
11685792080,-3,0,1,3,-3,1,-2,3,11685783981,-0.469727,0.383301,0.809082,11685783981,-5.9375,-0.4375,1,11685783981,0.0371704,0.31665,0.522583,0.79071,0.454958,0.480146,1.28119
11685792080,-1,-2,-1,-5,4,1,-3,-2,11685783981,-0.469727,0.383301,0.809082,11685783981,-5.9375,-0.4375,1,11685783981,0.0371704,0.31665,0.522583,0.79071,0.454958,0.480146,1.28119
11685792905,5,-1,-2,-1,7,-11,-2,0,11685783981,-0.469727,0.383301,0.809082,11685783981,-5.9375,-0.4375,1,11685783981,0.0371704,0.31665,0.522583,0.79071,0.454958,0.480146,1.28119
11685792905,-3,-2,-4,1,-14,5,2,1,11685799007,-0.480469,0.376465,0.802734,11685799007,-5.0625,-2.0625,1.5625,11685799007,0.036499,0.315918,0.522949,0.79071,0.452834,0.479601,1.28104
11685814595,-2,-1,-1,1,2,-1,0,-1,11685799007,-0.480469,0.376465,0.802734,11685799007,-5.0625,-2.0625,1.5625,11685799007,0.036499,0.315918,0.522949,0.79071,0.452834,0.479601,1.28104
11685814595,0,3,5,-1,-9,-11,-5,-1,11685799007,-0.480469,0.376465,0.802734,11685799007,-5.0625,-2.0625,1.5625,11685799007,0.036499,0.315918,0.522949,0.79071,0.452834,0.479601,1.28104
11685815388,-2,-3,-1,0,7,8,-2,-2,11685799007,-0.480469,0.376465,0.802734,11685799007,-5.0625,-2.0625,1.5625,11685799007,0.036499,0.315918,0.522949,0.79071,0.452834,0.479601,1.28104
11685815388,-1,-1,-2,-2,-3,-3,-4,-1,11685821468,-0.4375,0.368652,0.807129,11685821468,-0.125,-0.5,2.625,11685821468,0.0366211,0.315491,0.523438,0.790588,0.452623,0.478568,1.28179
11685837063,-1,-1,-2,-2,-2,-1,0,-1,11685821468,-0.4375,0.368652,0.807129,11685821468,-0.125,-0.5,2.625,11685821468,0.0366211,0.315491,0.523438,0.790588,0.452623,0.478568,1.28179
11685837063,-1,-2,-3,1,12,2,2,1,11685821468,-0.4375,0.368652,0.807129,11685821468,-0.125,-0.5,2.625,11685821468,0.0366211,0.315491,0.523438,0.790588,0.452623,0.478568,1.28179
11685837892,1,-1,-1,-2,-16,-2,-3,-1,11685821468,-0.4375,0.368652,0.807129,11685821468,-0.125,-0.5,2.625,11685821468,0.0366211,0.315491,0.523438,0.790588,0.452623,0.478568,1.28179
11685837892,-2,1,-1,4,12,4,0,0,11685843971,-0.465332,0.369629,0.807617,11685843971,2.3125,-0.8125,0.375,11685843971,0.0368042,0.315491,0.523315,0.790649,0.452856,0.478406,1.28151
11685852248,-2,-2,1,-2,-2,-8,1,-2,11685843971,-0.465332,0.369629,0.807617,11685843971,2.3125,-0.8125,0.375,11685843971,0.0368042,0.315491,0.523315,0.790649,0.452856,0.478406,1.28151
11685852248,0,0,-4,-4,2,3,-3,-1,11685843971,-0.465332,0.369629,0.807617,11685843971,2.3125,-0.8125,0.375,11685843971,0.0368042,0.315491,0.523315,0.790649,0.452856,0.478406,1.28151
11685852931,2,1,1,4,-2,0,1,0,11685843971,-0.465332,0.369629,0.807617,11685843971,2.3125,-0.8125,0.375,11685843971,0.0368042,0.315491,0.523315,0.790649,0.452856,0.478406,1.28151
11685852931,-2,-2,-1,-1,-1,1,0,0,11685859001,-0.475586,0.404785,0.808105,11685859001,1.875,-0.25,2.0625,11685859001,0.0372925,0.315735,0.523438,0.790466,0.454149,0.478125,1.28222
11685874657,-1,0,-1,0,-4,-1,-4,1,11685859001,-0.475586,0.404785,0.808105,11685859001,1.875,-0.25,2.0625,11685859001,0.0372925,0.315735,0.523438,0.790466,0.454149,0.478125,1.28222
11685874657,0,-2,-1,0,9,-8,-1,-2,11685859001,-0.475586,0.404785,0.808105,11685859001,1.875,-0.25,2.0625,11685859001,0.0372925,0.315735,0.523438,0.790466,0.454149,0.478125,1.28222
11685875536,-2,-1,-2,-4,-8,17,-1,-3,11685859001,-0.475586,0.404785,0.808105,11685859001,1.875,-0.25,2.0625,11685859001,0.0372925,0.315735,0.523438,0.790466,0.454149,0.478125,1.28222
11685875536,0,0,0,-2,-1,-19,2,-3,11685881618,-0.456543,0.400879,0.793457,11685881618,-0.25,0.1875,4,11685881618,0.0375366,0.315735,0.524048,0.790039,0.454915,0.477481,1.28382
11685897285,0,-2,-1,-1,0,-3,-2,-3,11685881618,-0.456543,0.400879,0.793457,11685881618,-0.25,0.1875,4,11685881618,0.0375366,0.315735,0.524048,0.790039,0.454915,0.477481,1.28382
11685897285,-1,-2,1,0,-3,9,2,0,11685881618,-0.456543,0.400879,0.793457,11685881618,-0.25,0.1875,4,11685881618,0.0375366,0.315735,0.524048,0.790039,0.454915,0.477481,1.28382
11685897921,-4,1,-2,1,9,-3,-1,-2,11685881618,-0.456543,0.400879,0.793457,11685881618,-0.25,0.1875,4,11685881618,0.0375366,0.315735,0.524048,0.790039,0.454915,0.477481,1.28382
11685897921,0,-5,-1,-1,-1,3,1,-1,11685904188,-0.454102,0.391602,0.799316,11685904188,-1.375,0.25,4,11685904188,0.0375977,0.315613,0.524719,0.789673,0.455212,0.476875,1.2854
11685912286,2,1,0,-1,3,0,-2,-2,11685904188,-0.454102,0.391602,0.799316,11685904188,-1.375,0.25,4,11685904188,0.0375977,0.315613,0.524719,0.789673,0.455212,0.476875,1.2854
11685912286,-1,2,-1,-3,-12,0,0,0,11685904188,-0.454102,0.391602,0.799316,11685904188,-1.375,0.25,4,11685904188,0.0375977,0.315613,0.524719,0.789673,0.455212,0.476875,1.2854
11685912969,0,-1,-3,0,5,1,1,-1,11685904188,-0.454102,0.391602,0.799316,11685904188,-1.375,0.25,4,11685904188,0.0375977,0.315613,0.524719,0.789673,0.455212,0.476875,1.2854
11685912969,-1,0,-2,-5,-4,1,-4,1,11685919157,-0.483887,0.394043,0.804688,11685919157,-1.1875,-0.25,2.875,11685919157,0.0374756,0.315613,0.525085,0.789368,0.455218,0.476772,1.28628
11685934683,-1,0,-1,1,1,2,-3,-1,11685919157,-0.483887,0.394043,0.804688,11685919157,-1.1875,-0.25,2.875,11685919157,0.0374756,0.315613,0.525085,0.789368,0.455218,0.476772,1.28628
11685934683,2,-2,0,2,-4,0,-1,-1,11685919157,-0.483887,0.394043,0.804688,11685919157,-1.1875,-0.25,2.875,11685919157,0.0374756,0.315613,0.525085,0.789368,0.455218,0.476772,1.28628
11685935537,1,2,2,1,2,-2,1,-2,11685919157,-0.483887,0.394043,0.804688,11685919157,-1.1875,-0.25,2.875,11685919157,0.0374756,0.315613,0.525085,0.789368,0.455218,0.476772,1.28628
11685935537,-1,-2,-1,-2,-2,-3,-3,-1,11685941718,-0.455078,0.410645,0.796387,11685941718,-1.625,-0.875,5.1875,11685941718,0.0378418,0.315369,0.52594,0.788879,0.455926,0.475486,1.28822
11685957208,-1,-1,-3,-1,1,-3,0,0,11685941718,-0.455078,0.410645,0.796387,11685941718,-1.625,-0.875,5.1875,11685941718,0.0378418,0.315369,0.52594,0.788879,0.455926,0.475486,1.28822
11685957208,-3,-2,-2,-1,-4,-3,-1,-2,11685941718,-0.455078,0.410645,0.796387,11685941718,-1.625,-0.875,5.1875,11685941718,0.0378418,0.315369,0.52594,0.788879,0.455926,0.475486,1.28822
11685957964,-1,-3,1,-1,-1,-5,-1,0,11685941718,-0.455078,0.410645,0.796387,11685941718,-1.625,-0.875,5.1875,11685941718,0.0378418,0.315369,0.52594,0.788879,0.455926,0.475486,1.28822
11685957964,-2,-1,-1,2,3,-3,-3,-1,11685964158,-0.44873,0.396973,0.810547,11685964158,-2.5,-1.0625,3.75,11685964158,0.0379028,0.31488,0.526672,0.788635,0.455651,0.474312,1.2895
11685972259,1,0,2,-4,-3,-2,0,-4,11685964158,-0.44873,0.396973,0.810547,11685964158,-2.5,-1.0625,3.75,11685964158,0.0379028,0.31488,0.526672,0.788635,0.455651,0.474312,1.2895
11685972259,-1,0,-2,-3,-4,-4,-1,2,11685964158,-0.44873,0.396973,0.810547,11685964158,-2.5,-1.0625,3.75,11685964158,0.0379028,0.31488,0.526672,0.788635,0.455651,0.474312,1.2895
11685972891,-2,-2,-2,-4,3,1,0,-1,11685964158,-0.44873,0.396973,0.810547,11685964158,-2.5,-1.0625,3.75,11685964158,0.0379028,0.31488,0.526672,0.788635,0.455651,0.474312,1.2895
11685972891,-1,-3,-1,2,-1,2,-1,0,11685979194,-0.466309,0.397949,0.799805,11685979194,-1.6875,-1.875,1.875,11685979194,0.0379639,0.314575,0.526978,0.788574,0.455428,0.47363,1.28992
11685994824,1,0,0,2,4,4,-1,-2,11685979194,-0.466309,0.397949,0.799805,11685979194,-1.6875,-1.875,1.875,11685979194,0.0379639,0.314575,0.526978,0.788574,0.455428,0.47363,1.28992
11685994824,1,0,-1,0,-9,-5,-2,-3,11685979194,-0.466309,0.397949,0.799805,11685979194,-1.6875,-1.875,1.875,11685979194,0.0379639,0.314575,0.526978,0.788574,0.455428,0.47363,1.28992
11685995487,-3,-3,-1,-5,-16,-8,-4,-1,11685979194,-0.466309,0.397949,0.799805,11685979194,-1.6875,-1.875,1.875,11685979194,0.0379639,0.314575,0.526978,0.788574,0.455428,0.47363,1.28992
11685995487,1,1,-1,0,17,21,1,1,11686001680,-0.463867,0.396484,0.803223,11686001680,-1.5,-1.8125,2.0625,11686001680,0.0380249,0.314209,0.527283,0.788452,0.455096,0.472796,1.29023
11686017192,0,-2,-5,-2,-19,-31,-2,-3,11686001680,-0.463867,0.396484,0.803223,11686001680,-1.5,-1.8125,2.0625,11686001680,0.0380249,0.314209,0.527283,0.788452,0.455096,0.472796,1.29023
11686017192,-4,-3,-2,0,14,11,0,0,11686001680,-0.463867,0.396484,0.803223,11686001680,-1.5,-1.8125,2.0625,11686001680,0.0380249,0.314209,0.527283,0.788452,0.455096,0.472796,1.29023
11686018027,-1,0,0,-2,3,2,-1,0,11686001680,-0.463867,0.396484,0.803223,11686001680,-1.5,-1.8125,2.0625,11686001680,0.0380249,0.314209,0.527283,0.788452,0.455096,0.472796,1.29023
11686018027,-1,-5,-3,3,-8,1,-1,-1,11686024240,-0.458008,0.410645,0.803711,11686024240,-3.5625,-2.625,1.25,11686024240,0.0380249,0.31366,0.52771,0.788452,0.454442,0.471787,1.29065
11686032255,1,3,3,-3,7,0,-1,1,11686024240,-0.458008,0.410645,0.803711,11686024240,-3.5625,-2.625,1.25,11686024240,0.0380249,0.31366,0.52771,0.788452,0.454442,0.471787,1.29065
11686032255,-1,-2,-2,-4,-10,-7,-2,-1,11686024240,-0.458008,0.410645,0.803711,11686024240,-3.5625,-2.625,1.25,11686024240,0.0380249,0.31366,0.52771,0.788452,0.454442,0.471787,1.29065
11686032977,0,-1,-1,2,2,3,0,-2,11686024240,-0.458008,0.410645,0.803711,11686024240,-3.5625,-2.625,1.25,11686024240,0.0380249,0.31366,0.52771,0.788452,0.454442,0.471787,1.29065
11686032977,0,0,2,-2,-6,-2,-3,-1,11686039184,-0.459473,0.398926,0.810547,11686039184,-7.6875,-1.5625,1.25,11686039184,0.0372314,0.312744,0.528259,0.788452,0.451929,0.471061,1.29076
11686054862,-3,-3,-5,2,-1,5,1,0,11686039184,-0.459473,0.398926,0.810547,11686039184,-7.6875,-1.5625,1.25,11686039184,0.0372314,0.312744,0.528259,0.788452,0.451929,0.471061,1.29076
11686054862,-3,0,-1,-1,-5,-7,1,1,11686039184,-0.459473,0.398926,0.810547,11686039184,-7.6875,-1.5625,1.25,11686039184,0.0372314,0.312744,0.528259,0.788452,0.451929,0.471061,1.29076
11686055530,-2,1,-1,-3,1,3,-1,0,11686039184,-0.459473,0.398926,0.810547,11686039184,-7.6875,-1.5625,1.25,11686039184,0.0372314,0.312744,0.528259,0.788452,0.451929,0.471061,1.29076
11686055530,-1,-2,2,0,-3,-8,2,0,11686061703,-0.443359,0.389648,0.823242,11686061703,-7.625,-1,2.875,11686061703,0.036499,0.311707,0.529114,0.78833,0.449498,0.469938,1.29152
11686077262,0,-1,-1,-3,-2,4,-1,1,11686061703,-0.443359,0.389648,0.823242,11686061703,-7.625,-1,2.875,11686061703,0.036499,0.311707,0.529114,0.78833,0.449498,0.469938,1.29152
11686077262,-2,3,1,3,4,-1,-2,0,11686061703,-0.443359,0.389648,0.823242,11686061703,-7.625,-1,2.875,11686061703,0.036499,0.311707,0.529114,0.78833,0.449498,0.469938,1.29152
11686077997,0,0,-5,-4,-12,1,0,-1,11686061703,-0.443359,0.389648,0.823242,11686061703,-7.625,-1,2.875,11686061703,0.036499,0.311707,0.529114,0.78833,0.449498,0.469938,1.29152
11686077997,-1,1,-4,-5,-3,1,-5,-4,11686084098,-0.445801,0.380859,0.824219,11686084098,-6.375,-0.3125,2.375,11686084098,0.0357666,0.310852,0.529846,0.788208,0.4473,0.469153,1.29221
11686092241,-4,-5,-2,-1,8,-5,1,2,11686084098,-0.445801,0.380859,0.824219,11686084098,-6.375,-0.3125,2.375,11686084098,0.0357666,0.310852,0.529846,0.788208,0.4473,0.469153,1.29221
11686092241,0,-3,-2,-3,-24,-17,-3,-5,11686084098,-0.445801,0.380859,0.824219,11686084098,-6.375,-0.3125,2.375,11686084098,0.0357666,0.310852,0.529846,0.788208,0.4473,0.469153,1.29221
11686093020,-1,1,3,5,17,-5,2,0,11686084098,-0.445801,0.380859,0.824219,11686084098,-6.375,-0.3125,2.375,11686084098,0.0357666,0.310852,0.529846,0.788208,0.4473,0.469153,1.29221
11686093020,-3,-4,0,-1,20,24,2,0,11686099177,-0.468262,0.398438,0.813477,11686099177,-7.5,-1.125,0.8125,11686099177,0.0349121,0.31012,0.530334,0.788208,0.444961,0.468835,1.2924
11686114821,0,1,-1,-3,-17,-9,-7,-6,11686099177,-0.468262,0.398438,0.813477,11686099177,-7.5,-1.125,0.8125,11686099177,0.0349121,0.31012,0.530334,0.788208,0.444961,0.468835,1.2924
11686114821,-2,-1,-6,-7,-4,-12,2,0,11686099177,-0.468262,0.398438,0.813477,11686099177,-7.5,-1.125,0.8125,11686099177,0.0349121,0.31012,0.530334,0.788208,0.444961,0.468835,1.2924
11686115459,0,-2,-3,0,21,-20,-1,0,11686099177,-0.468262,0.398438,0.813477,11686099177,-7.5,-1.125,0.8125,11686099177,0.0349121,0.31012,0.530334,0.788208,0.444961,0.468835,1.2924
11686115459,4,-2,3,-2,-65,48,1,-3,11686121673,-0.471191,0.394043,0.801758,11686121673,-13.625,-3.9375,1.5625,11686121673,0.0335083,0.308594,0.53125,0.788269,0.440658,0.467782,1.29262
11686136954,1,-3,-7,-17,-47,-63,-16,-6,11686121673,-0.471191,0.394043,0.801758,11686121673,-13.625,-3.9375,1.5625,11686121673,0.0335083,0.308594,0.53125,0.788269,0.440658,0.467782,1.29262
11686136954,1,0,2,6,14,25,1,4,11686121673,-0.471191,0.394043,0.801758,11686121673,-13.625,-3.9375,1.5625,11686121673,0.0335083,0.308594,0.53125,0.788269,0.440658,0.467782,1.29262
11686144806,-1,-1,-4,-6,7,-1,0,-2,11686121673,-0.471191,0.394043,0.801758,11686121673,-13.625,-3.9375,1.5625,11686121673,0.0335083,0.308594,0.53125,0.788269,0.440658,0.467782,1.29262
11686144806,-3,1,-4,-3,20,-9,0,3,11686145530,-0.44873,0.421875,0.771484,11686145530,-19.9375,-4.6875,2.875,11686145530,0.0317993,0.30658,0.532654,0.788147,0.435338,0.466075,1.29345
11686152371,-2,-3,2,3,3,19,7,1,11686145530,-0.44873,0.421875,0.771484,11686145530,-19.9375,-4.6875,2.875,11686145530,0.0317993,0.30658,0.532654,0.788147,0.435338,0.466075,1.29345
11686152371,-2,0,-4,-3,-4,-2,-4,-5,11686145530,-0.44873,0.421875,0.771484,11686145530,-19.9375,-4.6875,2.875,11686145530,0.0317993,0.30658,0.532654,0.788147,0.435338,0.466075,1.29345
11686153031,-3,-2,-2,-4,-8,9,-3,0,11686145530,-0.44873,0.421875,0.771484,11686145530,-19.9375,-4.6875,2.875,11686145530,0.0317993,0.30658,0.532654,0.788147,0.435338,0.466075,1.29345
11686153031,-2,3,5,3,18,-2,2,-1,11686159001,-0.442383,0.344727,0.826172,11686159001,-12.875,0.75,0.125,11686159001,0.0297852,0.305176,0.533386,0.788269,0.43013,0.466035,1.29327
11686174798,1,0,-2,-3,-25,-5,-5,-3,11686159001,-0.442383,0.344727,0.826172,11686159001,-12.875,0.75,0.125,11686159001,0.0297852,0.305176,0.533386,0.788269,0.43013,0.466035,1.29327
11686174798,-2,-3,-1,-1,14,-9,-2,-2,11686159001,-0.442383,0.344727,0.826172,11686159001,-12.875,0.75,0.125,11686159001,0.0297852,0.305176,0.533386,0.788269,0.43013,0.466035,1.29327
11686175474,-6,-1,3,6,18,29,6,2,11686159001,-0.442383,0.344727,0.826172,11686159001,-12.875,0.75,0.125,11686159001,0.0297852,0.305176,0.533386,0.788269,0.43013,0.466035,1.29327
11686175474,0,2,0,-2,-17,-36,-2,-2,11686181652,-0.421387,0.347168,0.851562,11686181652,-9.375,4.0625,4.75,11686181652,0.0283203,0.30426,0.534668,0.787842,0.426956,0.465796,1.29521
11686197154,-2,-3,-11,-7,9,-5,-7,-3,11686181652,-0.421387,0.347168,0.851562,11686181652,-9.375,4.0625,4.75,11686181652,0.0283203,0.30426,0.534668,0.787842,0.426956,0.465796,1.29521
11686197154,2,-2,-4,-4,-41,8,2,-1,11686181652,-0.421387,0.347168,0.851562,11686181652,-9.375,4.0625,4.75,11686181652,0.0283203,0.30426,0.534668,0.787842,0.426956,0.465796,1.29521
11686197956,-3,-1,-9,2,31,23,-4,-3,11686181652,-0.421387,0.347168,0.851562,11686181652,-9.375,4.0625,4.75,11686181652,0.0283203,0.30426,0.534668,0.787842,0.426956,0.465796,1.29521
11686197956,-2,2,8,-4,-29,-52,3,4,11686204212,-0.421387,0.403809,0.878418,11686204212,-15.3125,5.125,9.25,11686204212,0.0267334,0.30304,0.536987,0.786743,0.423685,0.464659,1.2994
11686212301,-3,4,14,12,63,51,10,4,11686204212,-0.421387,0.403809,0.878418,11686204212,-15.3125,5.125,9.25,11686204212,0.0267334,0.30304,0.536987,0.786743,0.423685,0.464659,1.2994
11686212301,2,-1,-1,0,-9,16,-4,-5,11686204212,-0.421387,0.403809,0.878418,11686204212,-15.3125,5.125,9.25,11686204212,0.0267334,0.30304,0.536987,0.786743,0.423685,0.464659,1.2994
11686212950,6,-4,-6,-12,-53,-66,-15,-8,11686204212,-0.421387,0.403809,0.878418,11686204212,-15.3125,5.125,9.25,11686204212,0.0267334,0.30304,0.536987,0.786743,0.423685,0.464659,1.2994
11686212950,-7,-4,-15,-2,11,1,-10,1,11686219079,-0.420898,0.341309,0.853027,11686219079,-12,7.5,9.625,11686219079,0.0248413,0.302307,0.539124,0.785645,0.42061,0.464781,1.3037
11686234639,-5,2,1,3,37,55,15,6,11686219079,-0.420898,0.341309,0.853027,11686219079,-12,7.5,9.625,11686219079,0.0248413,0.302307,0.539124,0.785645,0.42061,0.464781,1.3037
11686234639,2,2,16,1,-57,-92,9,6,11686219079,-0.420898,0.341309,0.853027,11686219079,-12,7.5,9.625,11686219079,0.0248413,0.302307,0.539124,0.785645,0.42061,0.464781,1.3037
11686235405,-7,-8,-9,19,85,85,-1,-7,11686219079,-0.420898,0.341309,0.853027,11686219079,-12,7.5,9.625,11686219079,0.0248413,0.302307,0.539124,0.785645,0.42061,0.464781,1.3037
11686235405,1,-4,-15,-34,-60,-52,-29,-10,11686241507,-0.435547,0.316406,0.89209,11686241507,-14.25,15.5,10.5,11686241507,0.0216064,0.302185,0.541443,0.78418,0.416442,0.467367,1.30898
11686257102,3,-4,-3,6,-32,-13,-5,-9,11686241507,-0.435547,0.316406,0.89209,11686241507,-14.25,15.5,10.5,11686241507,0.0216064,0.302185,0.541443,0.78418,0.416442,0.467367,1.30898
11686257102,-1,3,4,10,27,22,9,3,11686241507,-0.435547,0.316406,0.89209,11686241507,-14.25,15.5,10.5,11686241507,0.0216064,0.302185,0.541443,0.78418,0.416442,0.467367,1.30898
11686257876,-2,2,5,-4,3,4,8,3,11686241507,-0.435547,0.316406,0.89209,11686241507,-14.25,15.5,10.5,11686241507,0.0216064,0.302185,0.541443,0.78418,0.416442,0.467367,1.30898
11686257876,0,1,5,8,-5,-25,6,1,11686264015,-0.436523,0.335938,0.780273,11686264015,1.6875,21,19.6875,11686264015,0.020752,0.305054,0.544128,0.78125,0.421361,0.47132,1.31926
11686271471,-1,0,-2,-6,16,14,-7,1,11686264015,-0.436523,0.335938,0.780273,11686264015,1.6875,21,19.6875,11686264015,0.020752,0.305054,0.544128,0.78125,0.421361,0.47132,1.31926
11686271471,-1,-2,-6,-3,-6,21,-7,-6,11686264015,-0.436523,0.335938,0.780273,11686264015,1.6875,21,19.6875,11686264015,0.020752,0.305054,0.544128,0.78125,0.421361,0.47132,1.31926
11686279654,-2,-1,4,-2,-19,-28,-2,3,11686264015,-0.436523,0.335938,0.780273,11686264015,1.6875,21,19.6875,11686264015,0.020752,0.305054,0.544128,0.78125,0.421361,0.47132,1.31926
11686279654,1,3,-3,2,4,8,0,-2,11686280447,-0.441895,0.289551,0.85498,11686280447,-9.125,30.5625,18.8125,11686280447,0.0170288,0.307434,0.547302,0.778198,0.421157,0.477826,1.32984
11686294573,1,-1,7,6,-37,-28,1,4,11686280447,-0.441895,0.289551,0.85498,11686280447,-9.125,30.5625,18.8125,11686280447,0.0170288,0.307434,0.547302,0.778198,0.421157,0.477826,1.32984
11686294573,-8,-4,-7,13,74,107,10,-6,11686280447,-0.441895,0.289551,0.85498,11686280447,-9.125,30.5625,18.8125,11686280447,0.0170288,0.307434,0.547302,0.778198,0.421157,0.477826,1.32984
11686295366,4,0,-5,-24,-93,-42,-21,0,11686280447,-0.441895,0.289551,0.85498,11686280447,-9.125,30.5625,18.8125,11686280447,0.0170288,0.307434,0.547302,0.778198,0.421157,0.477826,1.32984
11686295366,1,-1,4,3,22,-51,-11,-7,11686301484,-0.435547,0.309082,0.905273,11686301484,-10.0625,36.0625,33,11686301484,0.0136719,0.310059,0.552551,0.773499,0.423356,0.483127,1.34633
11686317085,-7,-7,-20,-11,73,8,-8,-3,11686301484,-0.435547,0.309082,0.905273,11686301484,-10.0625,36.0625,33,11686301484,0.0136719,0.310059,0.552551,0.773499,0.423356,0.483127,1.34633
11686317085,4,0,2,-27,-59,-6,1,1,11686301484,-0.435547,0.309082,0.905273,11686301484,-10.0625,36.0625,33,11686301484,0.0136719,0.310059,0.552551,0.773499,0.423356,0.483127,1.34633
11686317857,1,-1,-3,5,-36,-57,-6,-3,11686301484,-0.435547,0.309082,0.905273,11686301484,-10.0625,36.0625,33,11686301484,0.0136719,0.310059,0.552551,0.773499,0.423356,0.483127,1.34633
11686317857,0,1,6,21,10,44,36,8,11686323956,-0.460938,0.324219,0.836914,11686323956,-16.625,37.5625,42.1875,11686323956,0.00976562,0.312927,0.559204,0.767578,0.426148,0.488691,1.36694
11686331430,-4,-2,-1,3,5,21,-8,-3,11686323956,-0.460938,0.324219,0.836914,11686323956,-16.625,37.5625,42.1875,11686323956,0.00976562,0.312927,0.559204,0.767578,0.426148,0.488691,1.36694
11686331430,-4,-1,0,7,54,-23,-6,0,11686323956,-0.460938,0.324219,0.836914,11686323956,-16.625,37.5625,42.1875,11686323956,0.00976562,0.312927,0.559204,0.767578,0.426148,0.488691,1.36694
11686339642,1,4,5,1,-2,10,3,8,11686323956,-0.460938,0.324219,0.836914,11686323956,-16.625,37.5625,42.1875,11686323956,0.00976562,0.312927,0.559204,0.767578,0.426148,0.488691,1.36694
11686339642,5,-7,-2,-20,-55,19,-21,-19,11686340464,-0.449219,0.285156,0.828125,11686340464,-13.1875,38.75,45.1875,11686340464,0.00604248,0.315918,0.56604,0.761353,0.429796,0.494066,1.3885
11686354580,-2,-1,4,27,65,29,14,7,11686340464,-0.449219,0.285156,0.828125,11686340464,-13.1875,38.75,45.1875,11686340464,0.00604248,0.315918,0.56604,0.761353,0.429796,0.494066,1.3885
11686354580,5,3,8,10,-17,-11,12,5,11686340464,-0.449219,0.285156,0.828125,11686340464,-13.1875,38.75,45.1875,11686340464,0.00604248,0.315918,0.56604,0.761353,0.429796,0.494066,1.3885
11686355373,-3,3,0,11,32,40,22,7,11686340464,-0.449219,0.285156,0.828125,11686340464,-13.1875,38.75,45.1875,11686340464,0.00604248,0.315918,0.56604,0.761353,0.429796,0.494066,1.3885
11686355373,-6,0,2,11,47,40,9,5,11686361514,-0.466309,0.277832,0.82373,11686361514,9.875,42.125,49.75,11686361514,0.00512695,0.321533,0.572083,0.754456,0.442278,0.499856,1.4121
11686377089,-1,-3,-5,-13,-76,-12,-8,-6,11686361514,-0.466309,0.277832,0.82373,11686361514,9.875,42.125,49.75,11686361514,0.00512695,0.321533,0.572083,0.754456,0.442278,0.499856,1.4121
11686377089,-5,1,-1,-1,18,12,2,3,11686361514,-0.466309,0.277832,0.82373,11686361514,9.875,42.125,49.75,11686361514,0.00512695,0.321533,0.572083,0.754456,0.442278,0.499856,1.4121
11686377843,2,-3,-3,-17,-26,-45,-10,-7,11686361514,-0.466309,0.277832,0.82373,11686361514,9.875,42.125,49.75,11686361514,0.00512695,0.321533,0.572083,0.754456,0.442278,0.499856,1.4121
11686377843,-3,0,1,11,29,50,12,7,11686383958,-0.464844,0.378418,0.791016,11686383958,15.75,45,56.4375,11686383958,0.00592041,0.328735,0.578674,0.746277,0.46099,0.504995,1.43999
11686391422,2,-3,-6,-21,-42,-90,-24,-11,11686383958,-0.464844,0.378418,0.791016,11686383958,15.75,45,56.4375,11686383958,0.00592041,0.328735,0.578674,0.746277,0.46099,0.504995,1.43999
11686391422,-3,-8,-14,1,41,7,-17,-7,11686383958,-0.464844,0.378418,0.791016,11686383958,15.75,45,56.4375,11686383958,0.00592041,0.328735,0.578674,0.746277,0.46099,0.504995,1.43999
11686399627,2,2,5,-7,-17,-7,8,4,11686383958,-0.464844,0.378418,0.791016,11686383958,15.75,45,56.4375,11686383958,0.00592041,0.328735,0.578674,0.746277,0.46099,0.504995,1.43999
11686399627,-3,0,-4,8,31,49,5,-1,11686400461,-0.44873,0.424805,0.778809,11686400461,8.4375,41.75,56.125,11686400461,0.00653076,0.334778,0.585693,0.738037,0.477892,0.508087,1.46784
11686414639,2,0,2,-2,-7,-44,-3,2,11686400461,-0.44873,0.424805,0.778809,11686400461,8.4375,41.75,56.125,11686400461,0.00653076,0.334778,0.585693,0.738037,0.477892,0.508087,1.46784
11686414639,3,-1,4,-6,-52,29,7,0,11686400461,-0.44873,0.424805,0.778809,11686400461,8.4375,41.75,56.125,11686400461,0.00653076,0.334778,0.585693,0.738037,0.477892,0.508087,1.46784
11686415378,-6,-5,-7,6,25,-20,-9,3,11686400461,-0.44873,0.424805,0.778809,11686400461,8.4375,41.75,56.125,11686400461,0.00653076,0.334778,0.585693,0.738037,0.477892,0.508087,1.46784
11686415378,-3,2,-7,4,28,1,-2,-2,11686421527,-0.495605,0.396484,0.759277,11686421527,11.25,37.125,52.875,11686421527,0.00708008,0.340637,0.591797,0.730469,0.494013,0.511252,1.49333
11686437075,6,5,8,-2,-33,29,19,10,11686421527,-0.495605,0.396484,0.759277,11686421527,11.25,37.125,52.875,11686421527,0.00708008,0.340637,0.591797,0.730469,0.494013,0.511252,1.49333
11686437075,-2,1,-6,-4,12,-46,-20,-13,11686421527,-0.495605,0.396484,0.759277,11686421527,11.25,37.125,52.875,11686421527,0.00708008,0.340637,0.591797,0.730469,0.494013,0.511252,1.49333
11686437851,2,-2,4,2,9,49,20,12,11686421527,-0.495605,0.396484,0.759277,11686421527,11.25,37.125,52.875,11686421527,0.00708008,0.340637,0.591797,0.730469,0.494013,0.511252,1.49333
11686437851,3,-3,-4,-17,-19,-48,-17,-7,11686443987,-0.536621,0.428223,0.718262,11686443987,18.625,32.4375,48.9375,11686443987,0.00872803,0.347229,0.59668,0.723328,0.51261,0.514276,1.517
11686451396,1,2,5,5,1,19,8,1,11686443987,-0.536621,0.428223,0.718262,11686443987,18.625,32.4375,48.9375,11686443987,0.00872803,0.347229,0.59668,0.723328,0.51261,0.514276,1.517
11686451396,1,-4,-7,-10,4,-48,-1,4,11686443987,-0.536621,0.428223,0.718262,11686443987,18.625,32.4375,48.9375,11686443987,0.00872803,0.347229,0.59668,0.723328,0.51261,0.514276,1.517
11686459613,1,2,-1,1,4,-12,-6,-8,11686443987,-0.536621,0.428223,0.718262,11686443987,18.625,32.4375,48.9375,11686443987,0.00872803,0.347229,0.59668,0.723328,0.51261,0.514276,1.517
11686459613,-6,-2,-3,-5,-30,3,3,13,11686460430,-0.537109,0.48291,0.686035,11686460430,22.8125,26.75,44.4375,11686460430,0.0115356,0.353882,0.600708,0.716675,0.532663,0.515968,1.53878
11686474598,4,1,-1,-19,-50,-28,-18,-10,11686460430,-0.537109,0.48291,0.686035,11686460430,22.8125,26.75,44.4375,11686460430,0.0115356,0.353882,0.600708,0.716675,0.532663,0.515968,1.53878
11686474598,-8,-7,-10,-5,21,-24,-11,-11,11686460430,-0.537109,0.48291,0.686035,11686460430,22.8125,26.75,44.4375,11686460430,0.0115356,0.353882,0.600708,0.716675,0.532663,0.515968,1.53878
11686475391,-1,-3,-2,7,-4,71,5,9,11686460430,-0.537109,0.48291,0.686035,11686460430,22.8125,26.75,44.4375,11686460430,0.0115356,0.353882,0.600708,0.716675,0.532663,0.515968,1.53878
11686475391,1,1,-5,-5,17,-5,-8,-9,11686489171,-0.53125,0.547852,0.67334,11686489171,17.125,21.375,40.625,11686489171,0.0145264,0.359558,0.604614,0.710571,0.55109,0.516015,1.55893
11686497234,-3,2,1,5,-3,26,8,8,11686489171,-0.53125,0.547852,0.67334,11686489171,17.125,21.375,40.625,11686489171,0.0145264,0.359558,0.604614,0.710571,0.55109,0.516015,1.55893
11686497234,3,1,2,-7,-41,-46,-1,3,11686489171,-0.53125,0.547852,0.67334,11686489171,17.125,21.375,40.625,11686489171,0.0145264,0.359558,0.604614,0.710571,0.55109,0.516015,1.55893
11686497990,-8,-3,-2,11,53,5,-3,-10,11686489171,-0.53125,0.547852,0.67334,11686489171,17.125,21.375,40.625,11686489171,0.0145264,0.359558,0.604614,0.710571,0.55109,0.516015,1.55893
11686497990,0,0,1,-4,6,-32,-2,3,11686504022,-0.544434,0.545898,0.65332,11686504022,10.5625,16.5,37.0625,11686504022,0.0167236,0.364014,0.608276,0.705078,0.565819,0.515501,1.57656
11686511466,-1,-4,-3,3,-7,-8,0,-8,11686504022,-0.544434,0.545898,0.65332,11686504022,10.5625,16.5,37.0625,11686504022,0.0167236,0.364014,0.608276,0.705078,0.565819,0.515501,1.57656
11686511466,1,2,7,9,24,41,12,8,11686504022,-0.544434,0.545898,0.65332,11686504022,10.5625,16.5,37.0625,11686504022,0.0167236,0.364014,0.608276,0.705078,0.565819,0.515501,1.57656
11686519776,-1,0,-1,0,-14,5,-12,-6,11686504022,-0.544434,0.545898,0.65332,11686504022,10.5625,16.5,37.0625,11686504022,0.0167236,0.364014,0.608276,0.705078,0.565819,0.515501,1.57656
11686519776,3,1,6,0,-31,-5,11,6,11686520507,-0.518066,0.547363,0.683594,11686520507,2.125,11.25,30.5625,11686520507,0.0181885,0.366455,0.611755,0.700684,0.575275,0.513564,1.5904
11686534834,-8,-4,-10,9,56,59,-6,-4,11686520507,-0.518066,0.547363,0.683594,11686520507,2.125,11.25,30.5625,11686520507,0.0181885,0.366455,0.611755,0.700684,0.575275,0.513564,1.5904
11686534834,-1,3,2,6,14,20,4,2,11686520507,-0.518066,0.547363,0.683594,11686520507,2.125,11.25,30.5625,11686520507,0.0181885,0.366455,0.611755,0.700684,0.575275,0.513564,1.5904
11686535463,-3,-5,-3,-5,1,8,0,-2,11686520507,-0.518066,0.547363,0.683594,11686520507,2.125,11.25,30.5625,11686520507,0.0181885,0.366455,0.611755,0.700684,0.575275,0.513564,1.5904
11686535463,-4,1,6,7,7,29,6,3,11686541752,-0.489746,0.548828,0.709473,11686541752,1.3125,7.875,24.8125,11686541752,0.0196533,0.367981,0.614807,0.697205,0.582541,0.510886,1.60152
11686557325,-2,0,-3,1,12,39,4,-2,11686541752,-0.489746,0.548828,0.709473,11686541752,1.3125,7.875,24.8125,11686541752,0.0196533,0.367981,0.614807,0.697205,0.582541,0.510886,1.60152
11686557325,2,-1,-2,-11,-5,2,-6,0,11686541752,-0.489746,0.548828,0.709473,11686541752,1.3125,7.875,24.8125,11686541752,0.0196533,0.367981,0.614807,0.697205,0.582541,0.510886,1.60152
11686558066,-1,0,1,9,32,-22,0,-3,11686541752,-0.489746,0.548828,0.709473,11686541752,1.3125,7.875,24.8125,11686541752,0.0196533,0.367981,0.614807,0.697205,0.582541,0.510886,1.60152
11686558066,0,-3,-7,-10,-9,-5,-7,-7,11686564192,-0.509766,0.541992,0.71582,11686564192,0.625,5.75,16.625,11686564192,0.0205688,0.369263,0.61676,0.694824,0.587793,0.509537,1.60918
11686571592,-4,0,1,2,22,-21,2,2,11686564192,-0.509766,0.541992,0.71582,11686564192,0.625,5.75,16.625,11686564192,0.0205688,0.369263,0.61676,0.694824,0.587793,0.509537,1.60918
11686571592,-1,0,2,11,-18,12,0,-1,11686564192,-0.509766,0.541992,0.71582,11686564192,0.625,5.75,16.625,11686564192,0.0205688,0.369263,0.61676,0.694824,0.587793,0.509537,1.60918
11686579826,-3,-1,-5,1,28,16,0,-1,11686564192,-0.509766,0.541992,0.71582,11686564192,0.625,5.75,16.625,11686564192,0.0205688,0.369263,0.61676,0.694824,0.587793,0.509537,1.60918
11686579826,2,0,3,-16,-48,-83,-7,3,11686580563,-0.507812,0.535645,0.710449,11686580563,-0.5625,3.375,8.8125,11686580563,0.0209351,0.370056,0.617798,0.69342,0.590652,0.509043,1.61345
11686594837,4,-2,-4,-3,-45,-30,-8,-5,11686580563,-0.507812,0.535645,0.710449,11686580563,-0.5625,3.375,8.8125,11686580563,0.0209351,0.370056,0.617798,0.69342,0.590652,0.509043,1.61345
11686594837,-3,-2,-4,-9,2,18,-4,-4,11686580563,-0.507812,0.535645,0.710449,11686580563,-0.5625,3.375,8.8125,11686580563,0.0209351,0.370056,0.617798,0.69342,0.590652,0.509043,1.61345
11686595460,2,0,5,-5,-46,-5,-1,-3,11686580563,-0.507812,0.535645,0.710449,11686580563,-0.5625,3.375,8.8125,11686580563,0.0209351,0.370056,0.617798,0.69342,0.590652,0.509043,1.61345
11686595460,0,-4,-4,-4,9,-49,-17,-7,11686601715,-0.489746,0.537598,0.721191,11686601715,-2.8125,0.8125,3.8125,11686601715,0.0211792,0.370178,0.618469,0.692749,0.591691,0.50829,1.61554
11686617307,-3,-1,-1,-2,14,7,2,2,11686601715,-0.489746,0.537598,0.721191,11686601715,-2.8125,0.8125,3.8125,11686601715,0.0211792,0.370178,0.618469,0.692749,0.591691,0.50829,1.61554
11686617307,-1,-3,-3,-3,-11,-14,-4,-1,11686601715,-0.489746,0.537598,0.721191,11686601715,-2.8125,0.8125,3.8125,11686601715,0.0211792,0.370178,0.618469,0.692749,0.591691,0.50829,1.61554
11686618062,2,-2,-5,-12,-46,-48,-8,-7,11686601715,-0.489746,0.537598,0.721191,11686601715,-2.8125,0.8125,3.8125,11686601715,0.0211792,0.370178,0.618469,0.692749,0.591691,0.50829,1.61554
11686618062,-2,1,-4,9,29,30,0,-2,11686624196,-0.489258,0.522949,0.712402,11686624196,-4.75,-1.9375,-0.6875,11686624196,0.0210571,0.369751,0.618652,0.69281,0.590749,0.507828,1.61533
11686640481,0,1,7,4,41,-17,6,3,11686624196,-0.489258,0.522949,0.712402,11686624196,-4.75,-1.9375,-0.6875,11686624196,0.0210571,0.369751,0.618652,0.69281,0.590749,0.507828,1.61533
11686640481,-4,-2,-4,3,11,39,5,1,11686624196,-0.489258,0.522949,0.712402,11686624196,-4.75,-1.9375,-0.6875,11686624196,0.0210571,0.369751,0.618652,0.69281,0.590749,0.507828,1.61533
11686641117,-2,-1,1,1,26,20,-1,-2,11686624196,-0.489258,0.522949,0.712402,11686624196,-4.75,-1.9375,-0.6875,11686624196,0.0210571,0.369751,0.618652,0.69281,0.590749,0.507828,1.61533
11686641117,0,0,1,0,-27,3,2,0,11686641922,-0.489746,0.501465,0.717285,11686641922,-7.1875,-3.5625,-3.25,11686641922,0.0205078,0.368774,0.618713,0.693298,0.587991,0.507466,1.61384
11686654810,0,-3,-3,-3,10,-20,-5,-4,11686641922,-0.489746,0.501465,0.717285,11686641922,-7.1875,-3.5625,-3.25,11686641922,0.0205078,0.368774,0.618713,0.693298,0.587991,0.507466,1.61384
11686654810,1,1,1,-1,-15,-16,3,2,11686641922,-0.489746,0.501465,0.717285,11686641922,-7.1875,-3.5625,-3.25,11686641922,0.0205078,0.368774,0.618713,0.693298,0.587991,0.507466,1.61384
11686655443,-1,-3,-6,-10,-10,-20,-7,-4,11686641922,-0.489746,0.501465,0.717285,11686641922,-7.1875,-3.5625,-3.25,11686641922,0.0205078,0.368774,0.618713,0.693298,0.587991,0.507466,1.61384
11686655443,-1,-3,-2,2,12,31,3,-2,11686661609,-0.490234,0.492188,0.73877,11686661609,-7.75,-5.375,-5.1875,11686661609,0.0198364,0.36731,0.618591,0.694214,0.583926,0.506868,1.61101
11686677163,-1,1,5,3,-10,7,-4,1,11686661609,-0.490234,0.492188,0.73877,11686661609,-7.75,-5.375,-5.1875,11686661609,0.0198364,0.36731,0.618591,0.694214,0.583926,0.506868,1.61101
11686677163,-1,-1,-3,-1,-15,-20,-3,-3,11686661609,-0.490234,0.492188,0.73877,11686661609,-7.75,-5.375,-5.1875,11686661609,0.0198364,0.36731,0.618591,0.694214,0.583926,0.506868,1.61101
11686677970,-1,1,0,3,-1,-26,1,0,11686661609,-0.490234,0.492188,0.73877,11686661609,-7.75,-5.375,-5.1875,11686661609,0.0198364,0.36731,0.618591,0.694214,0.583926,0.506868,1.61101
11686677970,-2,-1,-1,3,18,13,-9,-3,11686684116,-0.498047,0.453125,0.73291,11686684116,-6.4375,-6.6875,-7.6875,11686684116,0.0189819,0.365784,0.617981,0.695618,0.579165,0.506855,1.60672
11686700535,-2,2,1,0,8,20,6,0,11686684116,-0.498047,0.453125,0.73291,11686684116,-6.4375,-6.6875,-7.6875,11686684116,0.0189819,0.365784,0.617981,0.695618,0.579165,0.506855,1.60672
11686700535,0,0,0,-5,1,6,-2,-1,11686684116,-0.498047,0.453125,0.73291,11686684116,-6.4375,-6.6875,-7.6875,11686684116,0.0189819,0.365784,0.617981,0.695618,0.579165,0.506855,1.60672
11686701276,0,1,1,-2,-9,-14,-5,-4,11686684116,-0.498047,0.453125,0.73291,11686684116,-6.4375,-6.6875,-7.6875,11686684116,0.0189819,0.365784,0.617981,0.695618,0.579165,0.506855,1.60672
11686701276,-1,-2,-1,2,-3,2,0,-2,11686701948,-0.49707,0.447266,0.73877,11686701948,-1.4375,-7.5625,-9.25,11686701948,0.0187378,0.364624,0.616882,0.697205,0.575685,0.506726,1.60167
11686714834,-2,0,-5,-1,12,13,2,0,11686701948,-0.49707,0.447266,0.73877,11686701948,-1.4375,-7.5625,-9.25,11686701948,0.0187378,0.364624,0.616882,0.697205,0.575685,0.506726,1.60167
11686714834,-1,-1,0,-3,-1,-18,-7,-4,11686701948,-0.49707,0.447266,0.73877,11686701948,-1.4375,-7.5625,-9.25,11686701948,0.0187378,0.364624,0.616882,0.697205,0.575685,0.506726,1.60167
11686715465,0,-3,-2,-1,-7,25,3,0,11686701948,-0.49707,0.447266,0.73877,11686701948,-1.4375,-7.5625,-9.25,11686701948,0.0187378,0.364624,0.616882,0.697205,0.575685,0.506726,1.60167
11686715465,-2,-2,-1,3,16,8,4,0,11686721680,-0.48291,0.435547,0.746094,11686721680,3.5625,-7.3125,-9.125,11686721680,0.019043,0.363831,0.615479,0.698792,0.573527,0.506412,1.59639
11686737215,0,-1,-1,-3,-15,2,2,-2,11686721680,-0.48291,0.435547,0.746094,11686721680,3.5625,-7.3125,-9.125,11686721680,0.019043,0.363831,0.615479,0.698792,0.573527,0.506412,1.59639
11686737215,-3,-2,1,3,4,-3,-3,-1,11686721680,-0.48291,0.435547,0.746094,11686721680,3.5625,-7.3125,-9.125,11686721680,0.019043,0.363831,0.615479,0.698792,0.573527,0.506412,1.59639
11686737936,-1,1,1,-1,-3,29,3,-1,11686721680,-0.48291,0.435547,0.746094,11686721680,3.5625,-7.3125,-9.125,11686721680,0.019043,0.363831,0.615479,0.698792,0.573527,0.506412,1.59639
11686737936,1,-4,0,-2,-23,-23,0,-2,11686744251,-0.46875,0.441406,0.769043,11686744251,2.5625,-9.125,-4.75,11686744251,0.0198975,0.362488,0.614807,0.700073,0.571502,0.504157,1.59224
11686760549,-1,-1,-2,-2,7,3,-3,0,11686744251,-0.46875,0.441406,0.769043,11686744251,2.5625,-9.125,-4.75,11686744251,0.0198975,0.362488,0.614807,0.700073,0.571502,0.504157,1.59224
11686760549,-2,0,-3,-1,5,4,1,-1,11686744251,-0.46875,0.441406,0.769043,11686744251,2.5625,-9.125,-4.75,11686744251,0.0198975,0.362488,0.614807,0.700073,0.571502,0.504157,1.59224
11686761108,-1,-1,-1,-4,-10,-6,-5,1,11686744251,-0.46875,0.441406,0.769043,11686744251,2.5625,-9.125,-4.75,11686744251,0.0198975,0.362488,0.614807,0.700073,0.571502,0.504157,1.59224
11686761108,-3,1,0,-1,9,-2,1,-2,11686761928,-0.498047,0.481445,0.766602,11686761928,4.625,-11.0625,2.9375,11686761928,0.0217285,0.361572,0.614868,0.7005,0.572217,0.500475,1.59085
11686774808,2,-1,-1,-5,-14,-8,2,2,11686761928,-0.498047,0.481445,0.766602,11686761928,4.625,-11.0625,2.9375,11686761928,0.0217285,0.361572,0.614868,0.7005,0.572217,0.500475,1.59085
11686774808,0,-3,2,-1,2,-8,-1,-1,11686761928,-0.498047,0.481445,0.766602,11686761928,4.625,-11.0625,2.9375,11686761928,0.0217285,0.361572,0.614868,0.7005,0.572217,0.500475,1.59085
11686775476,-1,-2,0,5,7,14,0,0,11686761928,-0.498047,0.481445,0.766602,11686761928,4.625,-11.0625,2.9375,11686761928,0.0217285,0.361572,0.614868,0.7005,0.572217,0.500475,1.59085
11686775476,1,2,-2,3,9,12,-1,0,11686781596,-0.484375,0.425781,0.742188,11686781596,4.0625,-9.625,2,11686781596,0.0228882,0.360535,0.614746,0.70105,0.571631,0.497653,1.58878
11686797338,-2,-1,-2,-3,-9,-6,1,0,11686781596,-0.484375,0.425781,0.742188,11686781596,4.0625,-9.625,2,11686781596,0.0228882,0.360535,0.614746,0.70105,0.571631,0.497653,1.58878
11686797338,-1,0,-3,-8,-4,-5,-4,-3,11686781596,-0.484375,0.425781,0.742188,11686781596,4.0625,-9.625,2,11686781596,0.0228882,0.360535,0.614746,0.70105,0.571631,0.497653,1.58878
11686797958,-1,-1,1,0,-2,-7,-1,-2,11686781596,-0.484375,0.425781,0.742188,11686781596,4.0625,-9.625,2,11686781596,0.0228882,0.360535,0.614746,0.70105,0.571631,0.497653,1.58878
11686797958,0,-2,-3,-2,4,6,-1,-1,11686804216,-0.465332,0.48584,0.706055,11686804216,9.0625,-10.0625,-4,11686804216,0.0250244,0.360535,0.613647,0.701965,0.573907,0.495479,1.58569
11686820359,1,-2,0,1,3,4,-1,0,11686804216,-0.465332,0.48584,0.706055,11686804216,9.0625,-10.0625,-4,11686804216,0.0250244,0.360535,0.613647,0.701965,0.573907,0.495479,1.58569
11686820359,-3,-3,0,0,-5,-3,1,1,11686804216,-0.465332,0.48584,0.706055,11686804216,9.0625,-10.0625,-4,11686804216,0.0250244,0.360535,0.613647,0.701965,0.573907,0.495479,1.58569
11686821088,-1,1,-2,-2,-5,-5,0,-1,11686804216,-0.465332,0.48584,0.706055,11686804216,9.0625,-10.0625,-4,11686804216,0.0250244,0.360535,0.613647,0.701965,0.573907,0.495479,1.58569
11686821088,-2,-3,-1,-1,5,4,1,0,11686821943,-0.461914,0.512695,0.716797,11686821943,12.75,-7.875,-8.0625,11686821943,0.0272827,0.361206,0.611816,0.703064,0.577256,0.494416,1.58168
11686834586,0,-2,-1,-1,-6,-6,-3,-5,11686821943,-0.461914,0.512695,0.716797,11686821943,12.75,-7.875,-8.0625,11686821943,0.0272827,0.361206,0.611816,0.703064,0.577256,0.494416,1.58168
11686834586,-2,-3,-1,1,7,7,-2,14,11686821943,-0.461914,0.512695,0.716797,11686821943,12.75,-7.875,-8.0625,11686821943,0.0272827,0.361206,0.611816,0.703064,0.577256,0.494416,1.58168
11686835385,1,-1,0,-5,-17,-9,-3,-4,11686821943,-0.461914,0.512695,0.716797,11686821943,12.75,-7.875,-8.0625,11686821943,0.0272827,0.361206,0.611816,0.703064,0.577256,0.494416,1.58168
11686835385,-2,0,-3,-2,6,2,-1,-2,11686849012,-0.455078,0.49707,0.746094,11686849012,8.8125,-5.75,-6.6875,11686849012,0.0288086,0.361389,0.610535,0.704041,0.578953,0.493474,1.57842
11686857173,0,0,0,2,-5,3,-2,0,11686849012,-0.455078,0.49707,0.746094,11686849012,8.8125,-5.75,-6.6875,11686849012,0.0288086,0.361389,0.610535,0.704041,0.578953,0.493474,1.57842
11686857173,2,-3,-1,-5,-16,-14,-4,-9,11686849012,-0.455078,0.49707,0.746094,11686849012,8.8125,-5.75,-6.6875,11686849012,0.0288086,0.361389,0.610535,0.704041,0.578953,0.493474,1.57842
11686857908,-5,2,-1,5,32,5,1,2,11686849012,-0.455078,0.49707,0.746094,11686849012,8.8125,-5.75,-6.6875,11686849012,0.0288086,0.361389,0.610535,0.704041,0.578953,0.493474,1.57842
11686857908,-3,0,0,-1,-19,10,0,1,11686863973,-0.475098,0.506348,0.781738,11686863973,4.125,-5.3125,-7.25,11686863973,0.0296021,0.361023,0.609436,0.705139,0.578627,0.492763,1.57477
11686880295,-2,0,0,1,-1,-7,1,-2,11686863973,-0.475098,0.506348,0.781738,11686863973,4.125,-5.3125,-7.25,11686863973,0.0296021,0.361023,0.609436,0.705139,0.578627,0.492763,1.57477
11686880295,1,2,-2,0,11,3,1,-3,11686863973,-0.475098,0.506348,0.781738,11686863973,4.125,-5.3125,-7.25,11686863973,0.0296021,0.361023,0.609436,0.705139,0.578627,0.492763,1.57477
11686881042,1,-2,-4,-6,-16,-10,-4,-1,11686863973,-0.475098,0.506348,0.781738,11686863973,4.125,-5.3125,-7.25,11686863973,0.0296021,0.361023,0.609436,0.705139,0.578627,0.492763,1.57477
11686881042,-1,0,-3,2,8,2,0,1,11686881908,-0.495605,0.546387,0.734863,11686881908,5.5,-6.625,-9.8125,11686881908,0.0307617,0.361328,0.607849,0.70636,0.579877,0.492759,1.57088
11686894601,0,-3,-2,2,-2,-8,-1,1,11686881908,-0.495605,0.546387,0.734863,11686881908,5.5,-6.625,-9.8125,11686881908,0.0307617,0.361328,0.607849,0.70636,0.579877,0.492759,1.57088
11686894601,-3,1,-5,-5,-6,9,-2,-2,11686881908,-0.495605,0.546387,0.734863,11686881908,5.5,-6.625,-9.8125,11686881908,0.0307617,0.361328,0.607849,0.70636,0.579877,0.492759,1.57088
11686895405,-3,-2,-7,-15,3,-11,3,0,11686881908,-0.495605,0.546387,0.734863,11686881908,5.5,-6.625,-9.8125,11686881908,0.0307617,0.361328,0.607849,0.70636,0.579877,0.492759,1.57088
11686895405,-1,3,2,6,12,5,0,0,11686901521,-0.503906,0.497559,0.740234,11686901521,7.5,-5.4375,-9.25,11686901521,0.0315552,0.361755,0.606079,0.707581,0.580738,0.493479,1.56671
11686917122,4,-2,11,12,-33,-29,-16,-8,11686901521,-0.503906,0.497559,0.740234,11686901521,7.5,-5.4375,-9.25,11686901521,0.0315552,0.361755,0.606079,0.707581,0.580738,0.493479,1.56671
11686917122,-1,-4,-9,-24,-4,-7,8,0,11686901521,-0.503906,0.497559,0.740234,11686901521,7.5,-5.4375,-9.25,11686901521,0.0315552,0.361755,0.606079,0.707581,0.580738,0.493479,1.56671
11686917870,2,0,9,23,2,-16,-3,-1,11686901521,-0.503906,0.497559,0.740234,11686901521,7.5,-5.4375,-9.25,11686901521,0.0315552,0.361755,0.606079,0.707581,0.580738,0.493479,1.56671
11686917870,-4,-4,-6,-16,6,-5,-7,-2,11686923972,-0.448242,0.54834,0.839844,11686923972,-27.125,-11.9375,-6.6875,11686923972,0.0297852,0.356934,0.607239,0.709106,0.569255,0.48933,1.56205
11686940553,-4,-2,-14,-15,-4,0,-1,-1,11686923972,-0.448242,0.54834,0.839844,11686923972,-27.125,-11.9375,-6.6875,11686923972,0.0297852,0.356934,0.607239,0.709106,0.569255,0.48933,1.56205
11686940553,-2,3,11,23,11,3,0,-1,11686923972,-0.448242,0.54834,0.839844,11686923972,-27.125,-11.9375,-6.6875,11686923972,0.0297852,0.356934,0.607239,0.709106,0.569255,0.48933,1.56205
11686941193,-2,0,0,-15,-3,3,2,1,11686923972,-0.448242,0.54834,0.839844,11686923972,-27.125,-11.9375,-6.6875,11686923972,0.0297852,0.356934,0.607239,0.709106,0.569255,0.48933,1.56205
11686941193,1,-4,-3,-1,-9,-2,0,-2,11686942030,-0.416992,0.543945,0.727539,11686942030,-19.5625,-12.8125,-8.5,11686942030,0.0292358,0.353577,0.607544,0.710571,0.561969,0.485848,1.55751
11686954711,1,-1,0,-1,-1,-22,0,-1,11686942030,-0.416992,0.543945,0.727539,11686942030,-19.5625,-12.8125,-8.5,11686942030,0.0292358,0.353577,0.607544,0.710571,0.561969,0.485848,1.55751
11686954711,-2,-1,-5,2,11,7,-1,-1,11686942030,-0.416992,0.543945,0.727539,11686942030,-19.5625,-12.8125,-8.5,11686942030,0.0292358,0.353577,0.607544,0.710571,0.561969,0.485848,1.55751
11686955444,-3,1,0,2,0,11,2,-1,11686942030,-0.416992,0.543945,0.727539,11686942030,-19.5625,-12.8125,-8.5,11686942030,0.0292358,0.353577,0.607544,0.710571,0.561969,0.485848,1.55751
11686955444,-1,-1,3,6,-4,0,-2,-2,11686961754,-0.453125,0.510742,0.731445,11686961754,-15.1875,-10.5625,-22.5,11686961754,0.0275879,0.351074,0.605713,0.71344,0.553498,0.486483,1.54849
11686977295,-2,-2,-2,-6,16,19,2,1,11686961754,-0.453125,0.510742,0.731445,11686961754,-15.1875,-10.5625,-22.5,11686961754,0.0275879,0.351074,0.605713,0.71344,0.553498,0.486483,1.54849
11686977295,-3,0,-2,-2,-6,-6,-1,0,11686961754,-0.453125,0.510742,0.731445,11686961754,-15.1875,-10.5625,-22.5,11686961754,0.0275879,0.351074,0.605713,0.71344,0.553498,0.486483,1.54849
11686978001,0,-2,2,4,0,0,-2,-1,11686961754,-0.453125,0.510742,0.731445,11686961754,-15.1875,-10.5625,-22.5,11686961754,0.0275879,0.351074,0.605713,0.71344,0.553498,0.486483,1.54849
11686978001,1,-2,-2,-6,-13,-8,-1,0,11686984185,-0.472656,0.48291,0.749512,11686984185,-7.5625,-4.25,-23.8125,11686984185,0.0258789,0.350037,0.60321,0.716125,0.547406,0.489426,1.53994
11687000376,-2,0,0,1,20,19,6,2,11686984185,-0.472656,0.48291,0.749512,11686984185,-7.5625,-4.25,-23.8125,11686984185,0.0258789,0.350037,0.60321,0.716125,0.547406,0.489426,1.53994
11687000376,-1,-1,2,3,0,4,-2,-3,11686984185,-0.472656,0.48291,0.749512,11686984185,-7.5625,-4.25,-23.8125,11686984185,0.0258789,0.350037,0.60321,0.716125,0.547406,0.489426,1.53994
11687001252,-1,-1,1,2,8,19,3,0,11686984185,-0.472656,0.48291,0.749512,11686984185,-7.5625,-4.25,-23.8125,11686984185,0.0258789,0.350037,0.60321,0.716125,0.547406,0.489426,1.53994
11687001252,-2,-2,-9,-6,-14,-24,-11,-6,11687001950,-0.47998,0.42041,0.783203,11687001950,1.8125,0.8125,-23.0625,11687001950,0.024231,0.350037,0.60022,0.718689,0.54311,0.493881,1.53169
11687014844,-3,-1,0,5,2,18,4,0,11687001950,-0.47998,0.42041,0.783203,11687001950,1.8125,0.8125,-23.0625,11687001950,0.024231,0.350037,0.60022,0.718689,0.54311,0.493881,1.53169
11687014844,-1,2,1,-5,30,55,4,0,11687001950,-0.47998,0.42041,0.783203,11687001950,1.8125,0.8125,-23.0625,11687001950,0.024231,0.350037,0.60022,0.718689,0.54311,0.493881,1.53169
11687015524,-1,-1,-4,12,-32,-52,-15,-5,11687001950,-0.47998,0.42041,0.783203,11687001950,1.8125,0.8125,-23.0625,11687001950,0.024231,0.350037,0.60022,0.718689,0.54311,0.493881,1.53169
11687015524,-1,-1,0,0,14,24,5,4,11687021654,-0.53125,0.434082,0.761719,11687021654,5.4375,-7.375,-22.25,11687021654,0.0237427,0.350037,0.596863,0.721558,0.540242,0.497012,1.52247
11687037268,-4,-1,5,6,9,-8,0,-3,11687021654,-0.53125,0.434082,0.761719,11687021654,5.4375,-7.375,-22.25,11687021654,0.0237427,0.350037,0.596863,0.721558,0.540242,0.497012,1.52247
11687037268,1,-4,-2,-10,-10,1,-1,-2,11687021654,-0.53125,0.434082,0.761719,11687021654,5.4375,-7.375,-22.25,11687021654,0.0237427,0.350037,0.596863,0.721558,0.540242,0.497012,1.52247
11687038048,-1,-1,-6,-12,-4,-1,-1,-2,11687021654,-0.53125,0.434082,0.761719,11687021654,5.4375,-7.375,-22.25,11687021654,0.0237427,0.350037,0.596863,0.721558,0.540242,0.497012,1.52247
11687038048,0,1,4,3,3,-2,2,0,11687044269,-0.51416,0.450195,0.707031,11687044269,0.9375,-10.25,-23.8125,11687044269,0.0232544,0.349548,0.593506,0.724487,0.536398,0.499382,1.51251
11687060526,-4,-3,-8,-25,-3,-8,-3,-2,11687044269,-0.51416,0.450195,0.707031,11687044269,0.9375,-10.25,-23.8125,11687044269,0.0232544,0.349548,0.593506,0.724487,0.536398,0.499382,1.51251
11687060526,-2,1,-5,-27,-2,-8,-1,1,11687044269,-0.51416,0.450195,0.707031,11687044269,0.9375,-10.25,-23.8125,11687044269,0.0232544,0.349548,0.593506,0.724487,0.536398,0.499382,1.51251
11687061252,4,7,37,90,10,4,2,4,11687044269,-0.51416,0.450195,0.707031,11687044269,0.9375,-10.25,-23.8125,11687044269,0.0232544,0.349548,0.593506,0.724487,0.536398,0.499382,1.51251
11687061252,-1,-1,-5,-16,-6,-4,-1,0,11687062020,-0.489258,0.414551,0.733398,11687062020,-22.125,-15.8125,-28.3125,11687062020,0.0201416,0.345459,0.591125,0.728516,0.522304,0.500121,1.49955
11687074857,-1,0,-2,0,8,11,4,1,11687062020,-0.489258,0.414551,0.733398,11687062020,-22.125,-15.8125,-28.3125,11687062020,0.0201416,0.345459,0.591125,0.728516,0.522304,0.500121,1.49955
11687074857,0,-1,-3,-7,-15,-11,-5,-2,11687062020,-0.489258,0.414551,0.733398,11687062020,-22.125,-15.8125,-28.3125,11687062020,0.0201416,0.345459,0.591125,0.728516,0.522304,0.500121,1.49955
11687075512,-3,-3,-10,-24,6,4,1,-2,11687062020,-0.489258,0.414551,0.733398,11687062020,-22.125,-15.8125,-28.3125,11687062020,0.0201416,0.345459,0.591125,0.728516,0.522304,0.500121,1.49955
11687075512,-1,0,3,5,1,9,2,1,11687081714,-0.467773,0.452637,0.761719,11687081714,-12.875,-15.0625,-29.625,11687081714,0.0185547,0.342407,0.588135,0.732422,0.51212,0.500367,1.48668
11687097340,-2,-2,0,3,-3,-3,0,0,11687081714,-0.467773,0.452637,0.761719,11687081714,-12.875,-15.0625,-29.625,11687081714,0.0185547,0.342407,0.588135,0.732422,0.51212,0.500367,1.48668
11687097340,-2,0,0,10,0,-12,-2,-1,11687081714,-0.467773,0.452637,0.761719,11687081714,-12.875,-15.0625,-29.625,11687081714,0.0185547,0.342407,0.588135,0.732422,0.51212,0.500367,1.48668
11687097961,0,-3,-6,-22,-6,-3,-3,-1,11687081714,-0.467773,0.452637,0.761719,11687081714,-12.875,-15.0625,-29.625,11687081714,0.0185547,0.342407,0.588135,0.732422,0.51212,0.500367,1.48668
11687097961,-2,-2,1,7,5,6,1,-1,11687104037,-0.476562,0.425781,0.77002,11687104037,2.75,-11.125,-30.875,11687104037,0.0182495,0.341309,0.583984,0.736206,0.506857,0.50206,1.47373
11687120347,0,0,-5,-10,-10,-6,-6,2,11687104037,-0.476562,0.425781,0.77002,11687104037,2.75,-11.125,-30.875,11687104037,0.0182495,0.341309,0.583984,0.736206,0.506857,0.50206,1.47373
11687120347,2,1,6,15,-8,-23,-3,-1,11687104037,-0.476562,0.425781,0.77002,11687104037,2.75,-11.125,-30.875,11687104037,0.0182495,0.341309,0.583984,0.736206,0.506857,0.50206,1.47373
11687121075,-3,-3,-5,-11,10,27,0,-1,11687104037,-0.476562,0.425781,0.77002,11687104037,2.75,-11.125,-30.875,11687104037,0.0182495,0.341309,0.583984,0.736206,0.506857,0.50206,1.47373
11687121075,0,0,-1,-10,-13,-10,4,0,11687121928,-0.469727,0.415039,0.79541,11687121928,-2,-6.5625,-27.875,11687121928,0.0170288,0.340027,0.580566,0.739563,0.500344,0.504272,1.46247
11687134829,0,-1,1,7,2,1,0,0,11687121928,-0.469727,0.415039,0.79541,11687121928,-2,-6.5625,-27.875,11687121928,0.0170288,0.340027,0.580566,0.739563,0.500344,0.504272,1.46247
11687134829,-1,-2,-2,2,-12,-17,-4,-2,11687121928,-0.469727,0.415039,0.79541,11687121928,-2,-6.5625,-27.875,11687121928,0.0170288,0.340027,0.580566,0.739563,0.500344,0.504272,1.46247
11687135532,1,-1,-5,-6,17,-4,-4,-3,11687121928,-0.469727,0.415039,0.79541,11687121928,-2,-6.5625,-27.875,11687121928,0.0170288,0.340027,0.580566,0.739563,0.500344,0.504272,1.46247
11687135532,-4,-2,0,3,-9,5,-1,0,11687141771,-0.493164,0.415039,0.833008,11687141771,-10.3125,-7.6875,-25.5,11687141771,0.0149536,0.337708,0.577942,0.742737,0.491085,0.505644,1.45178
11687157334,-1,3,0,0,-2,-10,-1,-1,11687141771,-0.493164,0.415039,0.833008,11687141771,-10.3125,-7.6875,-25.5,11687141771,0.0149536,0.337708,0.577942,0.742737,0.491085,0.505644,1.45178
11687157334,-2,0,2,5,-3,-6,-1,-1,11687141771,-0.493164,0.415039,0.833008,11687141771,-10.3125,-7.6875,-25.5,11687141771,0.0149536,0.337708,0.577942,0.742737,0.491085,0.505644,1.45178
11687158084,-1,-5,-7,-18,-8,-3,2,-1,11687141771,-0.493164,0.415039,0.833008,11687141771,-10.3125,-7.6875,-25.5,11687141771,0.0149536,0.337708,0.577942,0.742737,0.491085,0.505644,1.45178
11687158084,-3,-1,-2,2,3,-6,-8,-4,11687164165,-0.497559,0.452637,0.769531,11687164165,-8.375,-10.25,-21.375,11687164165,0.013916,0.335938,0.575623,0.7453,0.484651,0.506052,1.44282
11687180541,0,-2,1,1,-1,7,1,1,11687164165,-0.497559,0.452637,0.769531,11687164165,-8.375,-10.25,-21.375,11687164165,0.013916,0.335938,0.575623,0.7453,0.484651,0.506052,1.44282
11687180541,-1,-1,-4,-1,-6,3,-1,-1,11687164165,-0.497559,0.452637,0.769531,11687164165,-8.375,-10.25,-21.375,11687164165,0.013916,0.335938,0.575623,0.7453,0.484651,0.506052,1.44282
11687181194,-3,1,-2,-6,-4,0,1,-3,11687164165,-0.497559,0.452637,0.769531,11687164165,-8.375,-10.25,-21.375,11687164165,0.013916,0.335938,0.575623,0.7453,0.484651,0.506052,1.44282
11687181194,0,2,3,3,9,8,1,-1,11687181980,-0.46875,0.397949,0.75293,11687181980,-6.0625,-6.25,-22.75,11687181980,0.0125732,0.334595,0.573059,0.747925,0.478391,0.507613,1.43384
11687194817,-2,1,1,-2,-5,-3,-1,-3,11687181980,-0.46875,0.397949,0.75293,11687181980,-6.0625,-6.25,-22.75,11687181980,0.0125732,0.334595,0.573059,0.747925,0.478391,0.507613,1.43384
11687194817,-1,0,1,2,1,0,1,2,11687181980,-0.46875,0.397949,0.75293,11687181980,-6.0625,-6.25,-22.75,11687181980,0.0125732,0.334595,0.573059,0.747925,0.478391,0.507613,1.43384
11687195479,-2,-4,-5,-9,-15,4,-4,-1,11687181980,-0.46875,0.397949,0.75293,11687181980,-6.0625,-6.25,-22.75,11687181980,0.0125732,0.334595,0.573059,0.747925,0.478391,0.507613,1.43384
11687195479,1,-1,-3,3,8,-4,-3,0,11687201662,-0.474121,0.365234,0.762207,11687201662,-0.3125,-5.75,-24.9375,11687201662,0.0114136,0.333679,0.569763,0.750854,0.472716,0.509892,1.42353
11687217147,0,-1,0,0,-21,-2,2,-1,11687201662,-0.474121,0.365234,0.762207,11687201662,-0.3125,-5.75,-24.9375,11687201662,0.0114136,0.333679,0.569763,0.750854,0.472716,0.509892,1.42353
11687217147,-2,-1,-1,2,11,6,7,0,11687201662,-0.474121,0.365234,0.762207,11687201662,-0.3125,-5.75,-24.9375,11687201662,0.0114136,0.333679,0.569763,0.750854,0.472716,0.509892,1.42353
11687217935,-2,-1,-3,-1,-1,-2,2,4,11687201662,-0.474121,0.365234,0.762207,11687201662,-0.3125,-5.75,-24.9375,11687201662,0.0114136,0.333679,0.569763,0.750854,0.472716,0.509892,1.42353
11687217935,-4,-3,-3,-2,6,-2,2,-1,11687224104,-0.512695,0.358398,0.772461,11687224104,-3.625,-7.125,-25.5,11687224104,0.00970459,0.332458,0.566467,0.753906,0.465607,0.512423,1.41273
11687240569,-3,-5,-2,0,3,0,-15,-8,11687224104,-0.512695,0.358398,0.772461,11687224104,-3.625,-7.125,-25.5,11687224104,0.00970459,0.332458,0.566467,0.753906,0.465607,0.512423,1.41273
11687240569,0,0,0,-7,-19,10,-1,5,11687224104,-0.512695,0.358398,0.772461,11687224104,-3.625,-7.125,-25.5,11687224104,0.00970459,0.332458,0.566467,0.753906,0.465607,0.512423,1.41273
11687241150,-4,-1,-3,-4,-10,-25,-18,-11,11687224104,-0.512695,0.358398,0.772461,11687224104,-3.625,-7.125,-25.5,11687224104,0.00970459,0.332458,0.566467,0.753906,0.465607,0.512423,1.41273
11687241150,2,0,2,4,0,2,8,4,11687241980,-0.512207,0.352051,0.8125,11687241980,-8.5625,-7.75,-18.9375,11687241980,0.0078125,0.330383,0.564392,0.756348,0.45745,0.513181,1.40399
11687254171,6,3,4,3,18,7,9,7,11687241980,-0.512207,0.352051,0.8125,11687241980,-8.5625,-7.75,-18.9375,11687241980,0.0078125,0.330383,0.564392,0.756348,0.45745,0.513181,1.40399
11687254171,-3,2,-4,2,-3,-7,3,11,11687241980,-0.512207,0.352051,0.8125,11687241980,-8.5625,-7.75,-18.9375,11687241980,0.0078125,0.330383,0.564392,0.756348,0.45745,0.513181,1.40399
11687262327,-7,-5,-1,-11,-6,-8,-51,-26,11687241980,-0.512207,0.352051,0.8125,11687241980,-8.5625,-7.75,-18.9375,11687241980,0.0078125,0.330383,0.564392,0.756348,0.45745,0.513181,1.40399
11687262327,0,8,3,8,17,9,14,5,11687263117,-0.535156,0.374023,0.773926,11687263117,-1.6875,-13.75,-13.625,11687263117,0.0078125,0.328796,0.5625,0.758484,0.4533,0.512072,1.39671
11687277316,-1,-10,-5,-5,-21,-3,4,-3,11687263117,-0.535156,0.374023,0.773926,11687263117,-1.6875,-13.75,-13.625,11687263117,0.0078125,0.328796,0.5625,0.758484,0.4533,0.512072,1.39671
11687277316,-1,0,-3,0,-1,-3,5,2,11687263117,-0.535156,0.374023,0.773926,11687263117,-1.6875,-13.75,-13.625,11687263117,0.0078125,0.328796,0.5625,0.758484,0.4533,0.512072,1.39671
11687278033,1,4,1,-1,9,9,18,8,11687263117,-0.535156,0.374023,0.773926,11687263117,-1.6875,-13.75,-13.625,11687263117,0.0078125,0.328796,0.5625,0.758484,0.4533,0.512072,1.39671
