timestamp,emg1,emg2,emg3,emg4,emg5,emg6,emg7,emg8,timestamp_accelerometer,accelerometer-x,accelerometer-y,accelerometer-z,timestamp_gyro,gyro-x,gyro-y,gyro-z,timestamp_orientation,orientation-x,orientation-y,orientation-z,,orientation-w,roll,pitch,yaw
140734799966975,1,0,0,0,0,0,0,0,140734799804352,0,2.76656e+19,4.59163e-41,140734799811190,0,0,0,140734799804384,0,0,0,0,0,0,0
11151683938,1,-3,1,-2,2,18,-1,0,140734799804352,0,2.76656e+19,4.59163e-41,140734799811190,0,0,0,140734799804384,0,0,0,0,0,0,0
11151683938,-2,-2,-5,1,-6,-8,0,0,140734799804352,0,2.76656e+19,4.59163e-41,140734799811190,0,0,0,140734799804384,0,0,0,0,0,0,0
11151692144,-1,0,1,0,-2,-4,-1,2,140734799804352,0,2.76656e+19,4.59163e-41,140734799811190,0,0,0,140734799804384,0,0,0,0,0,0,0
11151692144,-2,2,1,0,8,2,-1,-3,11151692937,0.0996094,-0.0673828,1.02002,11151692937,5.3125,-2.625,0.625,11151692937,0.0604858,-0.00189209,0.926453,-0.371399,-0.0487533,-0.110896,-2.37629
11151706471,2,1,1,0,-4,-4,3,-2,11151692937,0.0996094,-0.0673828,1.02002,11151692937,5.3125,-2.625,0.625,11151692937,0.0604858,-0.00189209,0.926453,-0.371399,-0.0487533,-0.110896,-2.37629
11151706471,-1,1,-1,3,-1,-2,0,0,11151692937,0.0996094,-0.0673828,1.02002,11151692937,5.3125,-2.625,0.625,11151692937,0.0604858,-0.00189209,0.926453,-0.371399,-0.0487533,-0.110896,-2.37629
11151715241,0,1,2,0,-2,-3,2,-3,11151692937,0.0996094,-0.0673828,1.02002,11151692937,5.3125,-2.625,0.625,11151692937,0.0604858,-0.00189209,0.926453,-0.371399,-0.0487533,-0.110896,-2.37629
11151715241,1,-6,-7,-3,-4,-13,-2,2,11151717024,0.112305,-0.0366211,1.00195,11151717024,8.9375,-3.75,-1.625,11151717024,0.0604248,-6.10352e-05,0.926575,-0.371216,-0.0452743,-0.112166,-2.37694
11151729640,0,-3,0,2,1,8,-1,0,11151717024,0.112305,-0.0366211,1.00195,11151717024,8.9375,-3.75,-1.625,11151717024,0.0604248,-6.10352e-05,0.926575,-0.371216,-0.0452743,-0.112166,-2.37694
11151729640,-1,-1,-1,2,1,-1,0,-1,11151717024,0.112305,-0.0366211,1.00195,11151717024,8.9375,-3.75,-1.625,11151717024,0.0604248,-6.10352e-05,0.926575,-0.371216,-0.0452743,-0.112166,-2.37694
11151730404,1,-3,-3,-2,-2,-3,-1,-1,11151717024,0.112305,-0.0366211,1.00195,11151717024,8.9375,-3.75,-1.625,11151717024,0.0604248,-6.10352e-05,0.926575,-0.371216,-0.0452743,-0.112166,-2.37694
11151730404,-3,-3,-1,-1,-6,-2,-1,-1,11151736474,0.120605,-0.0263672,0.994141,11151736474,5.0625,-2.9375,-1.4375,11151736474,0.0606079,0.00115967,0.926636,-0.371033,-0.0431162,-0.113427,-2.37742
11151743919,-4,-1,0,-4,3,-6,0,-2,11151736474,0.120605,-0.0263672,0.994141,11151736474,5.0625,-2.9375,-1.4375,11151736474,0.0606079,0.00115967,0.926636,-0.371033,-0.0431162,-0.113427,-2.37742
11151743919,-2,-4,-4,-1,1,-1,1,3,11151736474,0.120605,-0.0263672,0.994141,11151736474,5.0625,-2.9375,-1.4375,11151736474,0.0606079,0.00115967,0.926636,-0.371033,-0.0431162,-0.113427,-2.37742
11151759654,0,-3,-2,-4,-2,-1,-2,2,11151736474,0.120605,-0.0263672,0.994141,11151736474,5.0625,-2.9375,-1.4375,11151736474,0.0606079,0.00115967,0.926636,-0.371033,-0.0431162,-0.113427,-2.37742
11151759654,-1,2,-3,-5,3,-2,0,-3,11151760411,0.121582,-0.0180664,1.0083,11151760411,-1.875,-1.8125,-0.3125,11151760411,0.0609741,0.00134277,0.926636,-0.370972,-0.0430446,-0.114246,-2.37752
11151766411,2,3,0,0,-5,-8,-1,0,11151760411,0.121582,-0.0180664,1.0083,11151760411,-1.875,-1.8125,-0.3125,11151760411,0.0609741,0.00134277,0.926636,-0.370972,-0.0430446,-0.114246,-2.37752
11151766411,-2,0,0,-3,-2,-7,-3,0,11151760411,0.121582,-0.0180664,1.0083,11151760411,-1.875,-1.8125,-0.3125,11151760411,0.0609741,0.00134277,0.926636,-0.370972,-0.0430446,-0.114246,-2.37752
11151774642,-3,-1,-2,0,-5,-5,-1,0,11151760411,0.121582,-0.0180664,1.0083,11151760411,-1.875,-1.8125,-0.3125,11151760411,0.0609741,0.00134277,0.926636,-0.370972,-0.0430446,-0.114246,-2.37752
11151774642,-1,-3,-2,0,2,2,1,0,11151775421,0.104492,-0.0307617,0.998047,11151775421,-6.3125,-2.3125,-0.375,11151775421,0.0615234,0.000610352,0.926636,-0.37085,-0.0448102,-0.114724,-2.37762
11151789623,0,-1,-2,-1,0,1,0,-2,11151775421,0.104492,-0.0307617,0.998047,11151775421,-6.3125,-2.3125,-0.375,11151775421,0.0615234,0.000610352,0.926636,-0.37085,-0.0448102,-0.114724,-2.37762
11151789623,-2,1,-4,-5,1,-5,-2,-3,11151775421,0.104492,-0.0307617,0.998047,11151775421,-6.3125,-2.3125,-0.375,11151775421,0.0615234,0.000610352,0.926636,-0.37085,-0.0448102,-0.114724,-2.37762
11151790415,-2,-6,-4,-3,-4,-5,0,1,11151775421,0.104492,-0.0307617,0.998047,11151775421,-6.3125,-2.3125,-0.375,11151775421,0.0615234,0.000610352,0.926636,-0.37085,-0.0448102,-0.114724,-2.37762
11151790415,0,3,4,-1,-5,4,-2,-1,11151796468,0.113281,-0.0424805,1,11151796468,-5.125,-3.375,-1.6875,11151796468,0.0623779,0,0.926697,-0.370483,-0.0465488,-0.11587,-2.37818
11151803974,-4,-5,-5,-4,-3,-2,-3,3,11151796468,0.113281,-0.0424805,1,11151796468,-5.125,-3.375,-1.6875,11151796468,0.0623779,0,0.926697,-0.370483,-0.0465488,-0.11587,-2.37818
11151803974,1,-4,-2,1,-9,0,-3,1,11151796468,0.113281,-0.0424805,1,11151796468,-5.125,-3.375,-1.6875,11151796468,0.0623779,0,0.926697,-0.370483,-0.0465488,-0.11587,-2.37818
11151812120,-4,-2,-1,3,2,-4,-2,-1,11151796468,0.113281,-0.0424805,1,11151796468,-5.125,-3.375,-1.6875,11151796468,0.0623779,0,0.926697,-0.370483,-0.0465488,-0.11587,-2.37818
11151812120,0,1,-2,-1,0,-4,-1,-2,11151812905,0.114746,-0.0634766,0.998535,11151812905,-4.25,-3.3125,-1.0625,11151812905,0.0631714,-0.000610352,0.926758,-0.3703,-0.0482641,-0.116903,-2.3785
11151826926,-2,-4,-3,-3,1,3,-3,0,11151812905,0.114746,-0.0634766,0.998535,11151812905,-4.25,-3.3125,-1.0625,11151812905,0.0631714,-0.000610352,0.926758,-0.3703,-0.0482641,-0.116903,-2.3785
11151826926,0,1,-3,-2,1,2,0,-1,11151812905,0.114746,-0.0634766,0.998535,11151812905,-4.25,-3.3125,-1.0625,11151812905,0.0631714,-0.000610352,0.926758,-0.3703,-0.0482641,-0.116903,-2.3785
11151834691,2,1,-3,2,-3,5,-1,-1,11151812905,0.114746,-0.0634766,0.998535,11151812905,-4.25,-3.3125,-1.0625,11151812905,0.0631714,-0.000610352,0.926758,-0.3703,-0.0482641,-0.116903,-2.3785
11151834691,-2,-2,1,2,-3,0,0,2,11151835426,0.109375,-0.0708008,0.999023,11151835426,-3.4375,-2.4375,-0.375,11151835426,0.0637817,-0.00128174,0.926697,-0.370239,-0.04997,-0.117534,-2.3784
11151849733,4,1,1,-2,1,3,-2,-3,11151835426,0.109375,-0.0708008,0.999023,11151835426,-3.4375,-2.4375,-0.375,11151835426,0.0637817,-0.00128174,0.926697,-0.370239,-0.04997,-0.117534,-2.3784
11151849733,-2,0,0,-1,2,1,0,-4,11151835426,0.109375,-0.0708008,0.999023,11151835426,-3.4375,-2.4375,-0.375,11151835426,0.0637817,-0.00128174,0.926697,-0.370239,-0.04997,-0.117534,-2.3784
11151850463,-3,-1,-2,-3,1,1,-2,-2,11151835426,0.109375,-0.0708008,0.999023,11151835426,-3.4375,-2.4375,-0.375,11151835426,0.0637817,-0.00128174,0.926697,-0.370239,-0.04997,-0.117534,-2.3784
11151850463,-2,1,-1,-4,-5,1,-2,1,11151856462,0.118164,-0.0708008,1.00293,11151856462,-2.875,-1.625,0.375,11151856462,0.0643311,-0.00183105,0.926697,-0.3703,-0.0514182,-0.118149,-2.37826
11151864087,-3,0,-1,0,1,1,0,-6,11151856462,0.118164,-0.0708008,1.00293,11151856462,-2.875,-1.625,0.375,11151856462,0.0643311,-0.00183105,0.926697,-0.3703,-0.0514182,-0.118149,-2.37826
11151864087,-3,-2,-2,2,1,-2,0,-2,11151856462,0.118164,-0.0708008,1.00293,11151856462,-2.875,-1.625,0.375,11151856462,0.0643311,-0.00183105,0.926697,-0.3703,-0.0514182,-0.118149,-2.37826
11151872201,-2,-2,-2,-3,-1,1,-5,-2,11151856462,0.118164,-0.0708008,1.00293,11151856462,-2.875,-1.625,0.375,11151856462,0.0643311,-0.00183105,0.926697,-0.3703,-0.0514182,-0.118149,-2.37826
11151872201,2,-1,3,-1,0,-1,1,-2,11151873006,0.121094,-0.0634766,1.00684,11151873006,-1.1875,-1.1875,1.25,11151873006,0.0646362,-0.0020752,0.926575,-0.370483,-0.0521281,-0.11852,-2.37775
11151886589,-1,0,-3,0,-1,1,0,2,11151873006,0.121094,-0.0634766,1.00684,11151873006,-1.1875,-1.1875,1.25,11151873006,0.0646362,-0.0020752,0.926575,-0.370483,-0.0521281,-0.11852,-2.37775
11151886589,-3,-2,-4,-2,1,0,-2,-3,11151873006,0.121094,-0.0634766,1.00684,11151873006,-1.1875,-1.1875,1.25,11151873006,0.0646362,-0.0020752,0.926575,-0.370483,-0.0521281,-0.11852,-2.37775
11151894698,-2,-1,-1,1,2,1,1,2,11151873006,0.121094,-0.0634766,1.00684,11151873006,-1.1875,-1.1875,1.25,11151873006,0.0646362,-0.0020752,0.926575,-0.370483,-0.0521281,-0.11852,-2.37775
11151894698,0,1,-3,-2,-1,-1,-2,0,11151895515,0.125,-0.065918,1.00098,11151895515,0.6875,-1.375,2,11151895515,0.0649414,-0.00201416,0.926392,-0.37085,-0.052293,-0.11911,-2.37688
11151909631,-3,2,2,-2,-3,1,-1,-2,11151895515,0.125,-0.065918,1.00098,11151895515,0.6875,-1.375,2,11151895515,0.0649414,-0.00201416,0.926392,-0.37085,-0.052293,-0.11911,-2.37688
11151909631,0,-5,2,-2,-1,0,-1,1,11151895515,0.125,-0.065918,1.00098,11151895515,0.6875,-1.375,2,11151895515,0.0649414,-0.00201416,0.926392,-0.37085,-0.052293,-0.11911,-2.37688
11151910423,-2,4,1,2,-1,0,1,-3,11151895515,0.125,-0.065918,1.00098,11151895515,0.6875,-1.375,2,11151895515,0.0649414,-0.00201416,0.926392,-0.37085,-0.052293,-0.11911,-2.37688
11151910423,1,-2,4,0,0,4,1,1,11151916602,0.135254,-0.0600586,0.997559,11151916602,0.9375,-1.125,3.5625,11151916602,0.0652466,-0.00189209,0.926147,-0.371399,-0.0523685,-0.119736,-2.37565
11151924029,-2,-3,-1,1,2,-1,-1,-1,11151916602,0.135254,-0.0600586,0.997559,11151916602,0.9375,-1.125,3.5625,11151916602,0.0652466,-0.00189209,0.926147,-0.371399,-0.0523685,-0.119736,-2.37565
11151924029,-3,-2,1,-3,-5,3,-2,-1,11151916602,0.135254,-0.0600586,0.997559,11151916602,0.9375,-1.125,3.5625,11151916602,0.0652466,-0.00189209,0.926147,-0.371399,-0.0523685,-0.119736,-2.37565
11151932565,2,0,-4,-2,3,-3,0,0,11151916602,0.135254,-0.0600586,0.997559,11151916602,0.9375,-1.125,3.5625,11151916602,0.0652466,-0.00189209,0.926147,-0.371399,-0.0523685,-0.119736,-2.37565
11151932565,-2,-5,-3,1,-5,1,-2,2,11151932938,0.121582,-0.0585938,1.00146,11151932938,-0.9375,-0.25,3.75,11151932938,0.0653687,-0.0020752,0.925903,-0.372009,-0.0528818,-0.119792,-2.37432
11151946462,-3,1,-4,-1,-2,1,-1,-1,11151932938,0.121582,-0.0585938,1.00146,11151932938,-0.9375,-0.25,3.75,11151932938,0.0653687,-0.0020752,0.925903,-0.372009,-0.0528818,-0.119792,-2.37432
11151946462,2,0,1,-1,6,2,1,-3,11151932938,0.121582,-0.0585938,1.00146,11151932938,-0.9375,-0.25,3.75,11151932938,0.0653687,-0.0020752,0.925903,-0.372009,-0.0528818,-0.119792,-2.37432
11151954670,0,-1,1,-3,-3,-2,-2,0,11151932938,0.121582,-0.0585938,1.00146,11151932938,-0.9375,-0.25,3.75,11151932938,0.0653687,-0.0020752,0.925903,-0.372009,-0.0528818,-0.119792,-2.37432
11151954670,2,0,0,2,-1,4,-2,-4,11151955424,0.112793,-0.0585938,1.00146,11151955424,-0.25,0.375,1.5625,11151955424,0.0653076,-0.0022583,0.925781,-0.372253,-0.0532079,-0.119524,-2.37372
11151969751,1,-4,-3,-2,-2,1,-1,-2,11151955424,0.112793,-0.0585938,1.00146,11151955424,-0.25,0.375,1.5625,11151955424,0.0653076,-0.0022583,0.925781,-0.372253,-0.0532079,-0.119524,-2.37372
11151969751,-2,-1,-2,2,-1,4,0,2,11151955424,0.112793,-0.0585938,1.00146,11151955424,-0.25,0.375,1.5625,11151955424,0.0653076,-0.0022583,0.925781,-0.372253,-0.0532079,-0.119524,-2.37372
11151970425,-2,-4,1,0,-2,1,-1,-1,11151955424,0.112793,-0.0585938,1.00146,11151955424,-0.25,0.375,1.5625,11151955424,0.0653076,-0.0022583,0.925781,-0.372253,-0.0532079,-0.119524,-2.37372
11151970425,-1,1,3,-1,3,3,-2,-3,11151976638,0.103027,-0.0566406,1.00342,11151976638,2.25,-0.4375,-0.625,11151976638,0.0650024,-0.00201416,0.925842,-0.372192,-0.0525127,-0.119146,-2.37395
11151984022,-1,4,1,-4,0,6,-1,-1,11151976638,0.103027,-0.0566406,1.00342,11151976638,2.25,-0.4375,-0.625,11151976638,0.0650024,-0.00201416,0.925842,-0.372192,-0.0525127,-0.119146,-2.37395
11151984022,1,1,1,2,2,0,-1,1,11151976638,0.103027,-0.0566406,1.00342,11151976638,2.25,-0.4375,-0.625,11151976638,0.0650024,-0.00201416,0.925842,-0.372192,-0.0525127,-0.119146,-2.37395
11151992118,-3,-1,-2,-2,-1,3,0,-2,11151976638,0.103027,-0.0566406,1.00342,11151976638,2.25,-0.4375,-0.625,11151976638,0.0650024,-0.00201416,0.925842,-0.372192,-0.0525127,-0.119146,-2.37395
11151992118,-2,1,1,-1,1,4,0,-4,11151992919,0.110352,-0.0454102,0.998047,11151992919,2.375,-1,-0.5,11151992919,0.0648804,-0.00152588,0.925842,-0.372192,-0.0515101,-0.119285,-2.374
11152006446,-1,-5,-4,-2,-1,-1,-1,1,11151992919,0.110352,-0.0454102,0.998047,11151992919,2.375,-1,-0.5,11151992919,0.0648804,-0.00152588,0.925842,-0.372192,-0.0515101,-0.119285,-2.374
11152006446,-1,1,-3,0,2,7,1,0,11151992919,0.110352,-0.0454102,0.998047,11151992919,2.375,-1,-0.5,11151992919,0.0648804,-0.00152588,0.925842,-0.372192,-0.0515101,-0.119285,-2.374
11152014668,4,4,0,-4,4,0,-1,-2,11151992919,0.110352,-0.0454102,0.998047,11151992919,2.375,-1,-0.5,11151992919,0.0648804,-0.00152588,0.925842,-0.372192,-0.0515101,-0.119285,-2.374
11152014668,-6,-1,-6,3,1,-1,-1,-4,11152015467,0.118652,-0.0463867,0.986328,11152015467,-0.5625,-0.9375,1.4375,11152015467,0.0650635,-0.00146484,0.925781,-0.372375,-0.0515597,-0.119664,-2.37363
11152037938,-3,0,0,-3,-7,0,-2,5,11152015467,0.118652,-0.0463867,0.986328,11152015467,-0.5625,-0.9375,1.4375,11152015467,0.0650635,-0.00146484,0.925781,-0.372375,-0.0515597,-0.119664,-2.37363
11152037938,3,1,1,-4,-1,0,0,-2,11152015467,0.118652,-0.0463867,0.986328,11152015467,-0.5625,-0.9375,1.4375,11152015467,0.0650635,-0.00146484,0.925781,-0.372375,-0.0515597,-0.119664,-2.37363
11152038597,-1,-2,-1,-1,-5,-4,1,-2,11152015467,0.118652,-0.0463867,0.986328,11152015467,-0.5625,-0.9375,1.4375,11152015467,0.0650635,-0.00146484,0.925781,-0.372375,-0.0515597,-0.119664,-2.37363
11152038597,2,3,-2,0,11,3,1,-2,11152039403,0.116699,-0.0566406,0.996582,11152039403,-2.25,-1,2.625,11152039403,0.0653076,-0.00189209,0.925598,-0.372803,-0.0525972,-0.119773,-2.37264
11152043952,-3,1,3,4,3,10,0,-3,11152039403,0.116699,-0.0566406,0.996582,11152039403,-2.25,-1,2.625,11152039403,0.0653076,-0.00189209,0.925598,-0.372803,-0.0525972,-0.119773,-2.37264
11152043952,0,-4,-4,1,-4,0,-5,-1,11152039403,0.116699,-0.0566406,0.996582,11152039403,-2.25,-1,2.625,11152039403,0.0653076,-0.00189209,0.925598,-0.372803,-0.0525972,-0.119773,-2.37264
11152052178,-4,1,-3,-1,-5,3,1,-1,11152039403,0.116699,-0.0566406,0.996582,11152039403,-2.25,-1,2.625,11152039403,0.0653076,-0.00189209,0.925598,-0.372803,-0.0525972,-0.119773,-2.37264
11152052178,2,-3,-2,-1,6,-1,-1,-2,11152052930,0.121094,-0.0595703,1.00098,11152052930,-2.875,-1.25,1.9375,11152052930,0.0657349,-0.00231934,0.925415,-0.373108,-0.0537589,-0.120223,-2.37182
11152066473,0,-2,-3,4,-4,-1,1,-1,11152052930,0.121094,-0.0595703,1.00098,11152052930,-2.875,-1.25,1.9375,11152052930,0.0657349,-0.00231934,0.925415,-0.373108,-0.0537589,-0.120223,-2.37182
11152066473,-3,0,1,-1,1,-1,-3,-3,11152052930,0.121094,-0.0595703,1.00098,11152052930,-2.875,-1.25,1.9375,11152052930,0.0657349,-0.00231934,0.925415,-0.373108,-0.0537589,-0.120223,-2.37182
11152074632,-1,1,-1,2,-3,1,-1,-1,11152052930,0.121094,-0.0595703,1.00098,11152052930,-2.875,-1.25,1.9375,11152052930,0.0657349,-0.00231934,0.925415,-0.373108,-0.0537589,-0.120223,-2.37182
11152074632,-2,-5,-6,-3,-5,-7,-5,2,11152075465,0.130371,-0.059082,1.01172,11152075465,-0.8125,-1.5,0,11152075465,0.0661621,-0.00238037,0.925415,-0.373108,-0.0541993,-0.120973,-2.37181
11152089651,-1,0,-2,0,1,0,1,0,11152075465,0.130371,-0.059082,1.01172,11152075465,-0.8125,-1.5,0,11152075465,0.0661621,-0.00238037,0.925415,-0.373108,-0.0541993,-0.120973,-2.37181
11152089651,2,2,-1,2,-2,-2,3,-1,11152075465,0.130371,-0.059082,1.01172,11152075465,-0.8125,-1.5,0,11152075465,0.0661621,-0.00238037,0.925415,-0.373108,-0.0541993,-0.120973,-2.37181
11152090456,1,-1,-2,-1,-2,1,-2,-1,11152075465,0.130371,-0.059082,1.01172,11152075465,-0.8125,-1.5,0,11152075465,0.0661621,-0.00238037,0.925415,-0.373108,-0.0541993,-0.120973,-2.37181
11152090456,-3,0,1,2,0,2,0,-1,11152096528,0.126953,-0.0576172,1.00342,11152096528,1.75,-1,-0.75,11152096528,0.0662231,-0.00201416,0.925476,-0.372986,-0.053548,-0.121371,-2.37213
11152103992,0,-1,0,0,1,0,1,2,11152096528,0.126953,-0.0576172,1.00342,11152096528,1.75,-1,-0.75,11152096528,0.0662231,-0.00201416,0.925476,-0.372986,-0.053548,-0.121371,-2.37213
11152103992,-2,2,-1,1,-3,-2,-2,-2,11152096528,0.126953,-0.0576172,1.00342,11152096528,1.75,-1,-0.75,11152096528,0.0662231,-0.00201416,0.925476,-0.372986,-0.053548,-0.121371,-2.37213
11152112174,0,1,1,5,3,2,0,-1,11152096528,0.126953,-0.0576172,1.00342,11152096528,1.75,-1,-0.75,11152096528,0.0662231,-0.00201416,0.925476,-0.372986,-0.053548,-0.121371,-2.37213
11152112174,-2,-1,-2,-6,-4,-1,0,0,11152112973,0.120117,-0.0493164,1.00391,11152112973,1.9375,-1,-0.25,11152112973,0.0662231,-0.00164795,0.925476,-0.372986,-0.052866,-0.121646,-2.37217
11152126482,0,-2,-2,-1,0,-1,-1,-2,11152112973,0.120117,-0.0493164,1.00391,11152112973,1.9375,-1,-0.25,11152112973,0.0662231,-0.00164795,0.925476,-0.372986,-0.052866,-0.121646,-2.37217
11152126482,-1,-1,-2,-9,0,2,-2,-1,11152112973,0.120117,-0.0493164,1.00391,11152112973,1.9375,-1,-0.25,11152112973,0.0662231,-0.00164795,0.925476,-0.372986,-0.052866,-0.121646,-2.37217
11152134622,0,0,1,1,-2,-1,-1,0,11152112973,0.120117,-0.0493164,1.00391,11152112973,1.9375,-1,-0.25,11152112973,0.0662231,-0.00164795,0.925476,-0.372986,-0.052866,-0.121646,-2.37217
11152134622,1,-1,-2,0,-5,-1,-1,0,11152135416,0.124512,-0.0493164,0.994141,11152135416,-0.625,-1.0625,0.75,11152135416,0.0664673,-0.00158691,0.925415,-0.373108,-0.0529551,-0.122139,-2.37188
11152149609,-1,0,2,2,-1,2,-1,0,11152135416,0.124512,-0.0493164,0.994141,11152135416,-0.625,-1.0625,0.75,11152135416,0.0664673,-0.00158691,0.925415,-0.373108,-0.0529551,-0.122139,-2.37188
11152149609,1,-2,1,-2,-2,2,0,2,11152135416,0.124512,-0.0493164,0.994141,11152135416,-0.625,-1.0625,0.75,11152135416,0.0664673,-0.00158691,0.925415,-0.373108,-0.0529551,-0.122139,-2.37188
11152150384,-4,1,0,-2,1,3,1,-1,11152135416,0.124512,-0.0493164,0.994141,11152135416,-0.625,-1.0625,0.75,11152135416,0.0664673,-0.00158691,0.925415,-0.373108,-0.0529551,-0.122139,-2.37188
11152150384,-1,-1,0,0,-3,4,-2,-3,11152156491,0.126465,-0.0512695,0.995117,11152156491,-3.375,-1,0.875,11152156491,0.0668335,-0.00201416,0.925293,-0.373169,-0.0540387,-0.122484,-2.37151
11152164103,-1,-1,2,-2,0,0,-1,-4,11152156491,0.126465,-0.0512695,0.995117,11152156491,-3.375,-1,0.875,11152156491,0.0668335,-0.00201416,0.925293,-0.373169,-0.0540387,-0.122484,-2.37151
11152164103,-2,3,-2,-1,0,2,-3,-1,11152156491,0.126465,-0.0512695,0.995117,11152156491,-3.375,-1,0.875,11152156491,0.0668335,-0.00201416,0.925293,-0.373169,-0.0540387,-0.122484,-2.37151
11152172146,-3,-4,-2,-4,3,-3,-3,-2,11152156491,0.126465,-0.0512695,0.995117,11152156491,-3.375,-1,0.875,11152156491,0.0668335,-0.00201416,0.925293,-0.373169,-0.0540387,-0.122484,-2.37151
11152172146,1,0,3,1,0,2,1,3,11152172953,0.124512,-0.0693359,0.996582,11152172953,-2.875,-0.875,1.1875,11152172953,0.0672607,-0.00262451,0.925232,-0.373352,-0.055527,-0.122812,-2.37108
11152186530,1,-1,-2,2,2,-1,0,-4,11152172953,0.124512,-0.0693359,0.996582,11152172953,-2.875,-0.875,1.1875,11152172953,0.0672607,-0.00262451,0.925232,-0.373352,-0.055527,-0.122812,-2.37108
11152186530,-4,-1,-1,1,-2,0,-1,3,11152172953,0.124512,-0.0693359,0.996582,11152172953,-2.875,-0.875,1.1875,11152172953,0.0672607,-0.00262451,0.925232,-0.373352,-0.055527,-0.122812,-2.37108
11152194617,0,-1,-1,-6,-3,-4,0,0,11152172953,0.124512,-0.0693359,0.996582,11152172953,-2.875,-0.875,1.1875,11152172953,0.0672607,-0.00262451,0.925232,-0.373352,-0.055527,-0.122812,-2.37108
11152194617,-2,0,-3,-2,-2,0,3,-2,11152195482,0.120605,-0.065918,0.998047,11152195482,0.3125,-0.375,0.5,11152195482,0.0672607,-0.00262451,0.925232,-0.373352,-0.055527,-0.122812,-2.37108
11152209677,-1,-1,-1,-4,-2,-2,-4,-2,11152195482,0.120605,-0.065918,0.998047,11152195482,0.3125,-0.375,0.5,11152195482,0.0672607,-0.00262451,0.925232,-0.373352,-0.055527,-0.122812,-2.37108
11152209677,0,0,-2,4,-1,0,1,-2,11152195482,0.120605,-0.065918,0.998047,11152195482,0.3125,-0.375,0.5,11152195482,0.0672607,-0.00262451,0.925232,-0.373352,-0.055527,-0.122812,-2.37108
11152210453,-4,0,-2,0,2,3,0,0,11152195482,0.120605,-0.065918,0.998047,11152195482,0.3125,-0.375,0.5,11152195482,0.0672607,-0.00262451,0.925232,-0.373352,-0.055527,-0.122812,-2.37108
11152210453,1,1,2,1,-3,0,-2,-3,11152216589,0.119629,-0.0581055,0.995117,11152216589,1.6875,-0.5,0.125,11152216589,0.0671997,-0.00238037,0.925232,-0.373413,-0.0550338,-0.122882,-2.37102
11152223955,-1,0,1,-1,0,0,2,0,11152216589,0.119629,-0.0581055,0.995117,11152216589,1.6875,-0.5,0.125,11152216589,0.0671997,-0.00238037,0.925232,-0.373413,-0.0550338,-0.122882,-2.37102
11152223955,1,0,-3,1,3,-1,-1,-1,11152216589,0.119629,-0.0581055,0.995117,11152216589,1.6875,-0.5,0.125,11152216589,0.0671997,-0.00238037,0.925232,-0.373413,-0.0550338,-0.122882,-2.37102
11152232232,1,-3,-2,0,-1,1,-1,-2,11152216589,0.119629,-0.0581055,0.995117,11152216589,1.6875,-0.5,0.125,11152216589,0.0671997,-0.00238037,0.925232,-0.373413,-0.0550338,-0.122882,-2.37102
11152232232,-5,-1,0,-1,-3,2,-3,0,11152232978,0.120605,-0.0498047,1.00391,11152232978,0.5,-0.6875,1.125,11152232978,0.0671997,-0.0022583,0.92511,-0.373596,-0.0548307,-0.122956,-2.37054
11152246556,4,1,-4,-2,1,0,2,-2,11152232978,0.120605,-0.0498047,1.00391,11152232978,0.5,-0.6875,1.125,11152232978,0.0671997,-0.0022583,0.92511,-0.373596,-0.0548307,-0.122956,-2.37054
11152246556,0,-1,-1,-3,0,2,-1,-1,11152232978,0.120605,-0.0498047,1.00391,11152232978,0.5,-0.6875,1.125,11152232978,0.0671997,-0.0022583,0.92511,-0.373596,-0.0548307,-0.122956,-2.37054
11152254734,1,-4,-1,3,0,-1,0,0,11152232978,0.120605,-0.0498047,1.00391,11152232978,0.5,-0.6875,1.125,11152232978,0.0671997,-0.0022583,0.92511,-0.373596,-0.0548307,-0.122956,-2.37054
11152254734,-3,0,-4,1,0,-5,-3,-2,11152255455,0.120605,-0.0532227,1.00537,11152255455,-1.1875,-0.375,1.6875,11152255455,0.0672607,-0.00238037,0.924988,-0.37384,-0.0551373,-0.122961,-2.36995
11152269068,-1,-4,-1,-4,-2,-1,0,1,11152255455,0.120605,-0.0532227,1.00537,11152255455,-1.1875,-0.375,1.6875,11152255455,0.0672607,-0.00238037,0.924988,-0.37384,-0.0551373,-0.122961,-2.36995
11152269068,-2,-3,1,-1,0,2,0,-4,11152255455,0.120605,-0.0532227,1.00537,11152255455,-1.1875,-0.375,1.6875,11152255455,0.0672607,-0.00238037,0.924988,-0.37384,-0.0551373,-0.122961,-2.36995
11152277274,-1,1,-1,2,-1,-3,-2,-1,11152255455,0.120605,-0.0532227,1.00537,11152255455,-1.1875,-0.375,1.6875,11152255455,0.0672607,-0.00238037,0.924988,-0.37384,-0.0551373,-0.122961,-2.36995
11152277274,-3,-3,-3,-5,-2,-4,-1,0,11152278026,0.125,-0.0610352,1.00586,11152278026,-1.8125,-0.5,2,11152278026,0.0675049,-0.00274658,0.924866,-0.374207,-0.0560555,-0.123121,-2.36917
11152283985,-2,1,-1,1,-1,-1,0,-1,11152278026,0.125,-0.0610352,1.00586,11152278026,-1.8125,-0.5,2,11152278026,0.0675049,-0.00274658,0.924866,-0.374207,-0.0560555,-0.123121,-2.36917
11152283985,-2,0,-1,-4,0,2,2,0,11152278026,0.125,-0.0610352,1.00586,11152278026,-1.8125,-0.5,2,11152278026,0.0675049,-0.00274658,0.924866,-0.374207,-0.0560555,-0.123121,-2.36917
11152292204,-1,-4,0,-1,-4,1,-1,1,11152278026,0.125,-0.0610352,1.00586,11152278026,-1.8125,-0.5,2,11152278026,0.0675049,-0.00274658,0.924866,-0.374207,-0.0560555,-0.123121,-2.36917
11152292204,0,2,2,2,6,3,0,-2,11152292971,0.117676,-0.065918,0.996582,11152292971,-1.1875,-0.4375,1.75,11152292971,0.067627,-0.00305176,0.924744,-0.374451,-0.0567498,-0.1231,-2.36857
11152306480,-1,-5,-3,-2,-3,-3,-1,0,11152292971,0.117676,-0.065918,0.996582,11152292971,-1.1875,-0.4375,1.75,11152292971,0.067627,-0.00305176,0.924744,-0.374451,-0.0567498,-0.1231,-2.36857
11152306480,-5,-3,-5,1,-5,0,-4,0,11152292971,0.117676,-0.065918,0.996582,11152292971,-1.1875,-0.4375,1.75,11152292971,0.067627,-0.00305176,0.924744,-0.374451,-0.0567498,-0.1231,-2.36857
11152314771,1,-3,-3,-2,-4,3,0,0,11152292971,0.117676,-0.065918,0.996582,11152292971,-1.1875,-0.4375,1.75,11152292971,0.067627,-0.00305176,0.924744,-0.374451,-0.0567498,-0.1231,-2.36857
11152314771,-2,-1,-3,-4,1,-2,2,-4,11152315463,0.122559,-0.0678711,1.00146,11152315463,0.125,0.5,0.625,11152315463,0.067627,-0.00305176,0.924744,-0.374451,-0.0567498,-0.1231,-2.36857
11152329064,-3,-2,-1,4,-1,2,-5,-2,11152315463,0.122559,-0.0678711,1.00146,11152315463,0.125,0.5,0.625,11152315463,0.067627,-0.00305176,0.924744,-0.374451,-0.0567498,-0.1231,-2.36857
11152329064,-1,1,2,0,-2,-2,0,-4,11152315463,0.122559,-0.0678711,1.00146,11152315463,0.125,0.5,0.625,11152315463,0.067627,-0.00305176,0.924744,-0.374451,-0.0567498,-0.1231,-2.36857
11152337267,-3,-3,0,-1,-1,-3,-2,1,11152315463,0.122559,-0.0678711,1.00146,11152315463,0.125,0.5,0.625,11152315463,0.067627,-0.00305176,0.924744,-0.374451,-0.0567498,-0.1231,-2.36857
11152337267,3,-1,-5,-2,0,0,1,2,11152338047,0.119629,-0.0688477,1.00195,11152338047,1,0.625,-0.25,11152338047,0.0674438,-0.00311279,0.924744,-0.374451,-0.0567226,-0.122713,-2.36856
11152344036,-3,-1,2,0,-3,1,1,-2,11152338047,0.119629,-0.0688477,1.00195,11152338047,1,0.625,-0.25,11152338047,0.0674438,-0.00311279,0.924744,-0.374451,-0.0567226,-0.122713,-2.36856
11152344036,0,0,-5,-9,-1,-1,-1,1,11152338047,0.119629,-0.0688477,1.00195,11152338047,1,0.625,-0.25,11152338047,0.0674438,-0.00311279,0.924744,-0.374451,-0.0567226,-0.122713,-2.36856
11152352245,-1,0,0,1,1,3,-1,0,11152338047,0.119629,-0.0688477,1.00195,11152338047,1,0.625,-0.25,11152338047,0.0674438,-0.00311279,0.924744,-0.374451,-0.0567226,-0.122713,-2.36856
11152352245,-1,-2,2,-2,-2,1,-1,-1,11152353022,0.125,-0.0537109,0.98877,11152353022,3.5625,-0.375,-0.4375,11152353022,0.0672607,-0.00244141,0.924805,-0.374451,-0.0553326,-0.122887,-2.36875
11152366526,5,2,0,0,8,1,-1,1,11152353022,0.125,-0.0537109,0.98877,11152353022,3.5625,-0.375,-0.4375,11152353022,0.0672607,-0.00244141,0.924805,-0.374451,-0.0553326,-0.122887,-2.36875
11152366526,3,-2,2,0,9,3,-1,0,11152374704,0.131348,-0.0463867,0.991211,11152374704,-0.375,-0.375,0.1875,11152374704,0.0673218,-0.00244141,0.924805,-0.374451,-0.0553795,-0.123001,-2.36875
11152375475,-1,1,-2,-2,3,1,1,-2,11152374704,0.131348,-0.0463867,0.991211,11152374704,-0.375,-0.375,0.1875,11152374704,0.0673218,-0.00244141,0.924805,-0.374451,-0.0553795,-0.123001,-2.36875
11152375475,1,-1,0,-1,-1,1,-2,-4,11152374704,0.131348,-0.0463867,0.991211,11152374704,-0.375,-0.375,0.1875,11152374704,0.0673218,-0.00244141,0.924805,-0.374451,-0.0553795,-0.123001,-2.36875
11152388944,-1,-2,-2,4,-2,-2,-2,1,11152374704,0.131348,-0.0463867,0.991211,11152374704,-0.375,-0.375,0.1875,11152374704,0.0673218,-0.00244141,0.924805,-0.374451,-0.0553795,-0.123001,-2.36875
11152388944,-3,-1,3,4,-1,2,-1,1,11152397253,0.129883,-0.0541992,0.999512,11152397253,-3.125,-0.3125,0.5625,11152397253,0.067627,-0.00286865,0.924744,-0.374451,-0.056409,-0.123239,-2.36859
11152397951,-1,-2,-1,0,-1,3,-2,-3,11152397253,0.129883,-0.0541992,0.999512,11152397253,-3.125,-0.3125,0.5625,11152397253,0.067627,-0.00286865,0.924744,-0.374451,-0.056409,-0.123239,-2.36859
11152397951,0,-4,1,3,-1,3,0,2,11152397253,0.129883,-0.0541992,0.999512,11152397253,-3.125,-0.3125,0.5625,11152397253,0.067627,-0.00286865,0.924744,-0.374451,-0.056409,-0.123239,-2.36859
11152412807,-2,-1,-2,-1,-2,4,-1,3,11152397253,0.129883,-0.0541992,0.999512,11152397253,-3.125,-0.3125,0.5625,11152397253,0.067627,-0.00286865,0.924744,-0.374451,-0.056409,-0.123239,-2.36859
11152412807,-3,-3,-3,-1,-2,-5,1,-2,11152413605,0.121582,-0.0639648,1.00537,11152413605,-1.75,-0.125,0.5625,11152413605,0.067749,-0.00323486,0.924683,-0.374573,-0.0572007,-0.123181,-2.36826
11152414404,-1,-1,-2,0,-5,0,-2,0,11152413605,0.121582,-0.0639648,1.00537,11152413605,-1.75,-0.125,0.5625,11152413605,0.067749,-0.00323486,0.924683,-0.374573,-0.0572007,-0.123181,-2.36826
11152414404,-2,1,-2,0,0,2,-4,1,11152413605,0.121582,-0.0639648,1.00537,11152413605,-1.75,-0.125,0.5625,11152413605,0.067749,-0.00323486,0.924683,-0.374573,-0.0572007,-0.123181,-2.36826
11152426464,2,-1,-3,-3,-3,0,-2,-2,11152413605,0.121582,-0.0639648,1.00537,11152413605,-1.75,-0.125,0.5625,11152413605,0.067749,-0.00323486,0.924683,-0.374573,-0.0572007,-0.123181,-2.36826
11152426464,1,0,0,-2,-2,-1,0,-1,11152434696,0.117676,-0.0644531,1.00684,11152434696,0.8125,-0.0625,-0.1875,11152434696,0.067688,-0.00323486,0.924683,-0.374573,-0.0571538,-0.123067,-2.36826
11152435428,-3,-2,-2,-3,-3,5,2,-1,11152434696,0.117676,-0.0644531,1.00684,11152434696,0.8125,-0.0625,-0.1875,11152434696,0.067688,-0.00323486,0.924683,-0.374573,-0.0571538,-0.123067,-2.36826
11152435428,0,-5,-4,0,-3,-5,0,-1,11152434696,0.117676,-0.0644531,1.00684,11152434696,0.8125,-0.0625,-0.1875,11152434696,0.067688,-0.00323486,0.924683,-0.374573,-0.0571538,-0.123067,-2.36826
11152448965,-5,1,2,2,1,1,1,-2,11152434696,0.117676,-0.0644531,1.00684,11152434696,0.8125,-0.0625,-0.1875,11152434696,0.067688,-0.00323486,0.924683,-0.374573,-0.0571538,-0.123067,-2.36826
11152448965,0,1,-1,1,3,3,-1,-2,11152457154,0.115234,-0.0571289,0.998047,11152457154,1.9375,-0.125,-0.625,11152457154,0.0675049,-0.00292969,0.924744,-0.374512,-0.056437,-0.122965,-2.3685
11152457932,-4,-4,-2,1,-5,-2,-3,1,11152457154,0.115234,-0.0571289,0.998047,11152457154,1.9375,-0.125,-0.625,11152457154,0.0675049,-0.00292969,0.924744,-0.374512,-0.056437,-0.122965,-2.3685
11152457932,-2,-1,2,3,-1,1,-2,-1,11152457154,0.115234,-0.0571289,0.998047,11152457154,1.9375,-0.125,-0.625,11152457154,0.0675049,-0.00292969,0.924744,-0.374512,-0.056437,-0.122965,-2.3685
11152472774,0,-2,0,-1,-1,1,0,-2,11152457154,0.115234,-0.0571289,0.998047,11152457154,1.9375,-0.125,-0.625,11152457154,0.0675049,-0.00292969,0.924744,-0.374512,-0.056437,-0.122965,-2.3685
11152472774,-3,-5,-3,1,-1,-1,-2,2,11152473584,0.116699,-0.0517578,0.994629,11152473584,0.6875,-0.375,0,11152473584,0.0675049,-0.00292969,0.924744,-0.374512,-0.056437,-0.122965,-2.3685
11152474385,-3,-1,2,0,2,-1,1,-2,11152473584,0.116699,-0.0517578,0.994629,11152473584,0.6875,-0.375,0,11152473584,0.0675049,-0.00292969,0.924744,-0.374512,-0.056437,-0.122965,-2.3685
11152474385,-1,2,0,0,-2,2,1,1,11152473584,0.116699,-0.0517578,0.994629,11152473584,0.6875,-0.375,0,11152473584,0.0675049,-0.00292969,0.924744,-0.374512,-0.056437,-0.122965,-2.3685
11152486464,1,0,-1,0,0,0,0,-2,11152473584,0.116699,-0.0517578,0.994629,11152473584,0.6875,-0.375,0,11152473584,0.0675049,-0.00292969,0.924744,-0.374512,-0.056437,-0.122965,-2.3685
11152486464,-1,1,-1,0,-2,0,0,-3,11152494790,0.122559,-0.0595703,0.996582,11152494790,-1.3125,-0.3125,0.625,11152494790,0.067627,-0.00317383,0.924683,-0.374573,-0.0569932,-0.122999,-2.36827
11152495535,2,-1,1,-3,4,-3,0,-1,11152494790,0.122559,-0.0595703,0.996582,11152494790,-1.3125,-0.3125,0.625,11152494790,0.067627,-0.00317383,0.924683,-0.374573,-0.0569932,-0.122999,-2.36827
11152495535,-4,-1,-1,-4,-4,-2,-1,-3,11152494790,0.122559,-0.0595703,0.996582,11152494790,-1.3125,-0.3125,0.625,11152494790,0.067627,-0.00317383,0.924683,-0.374573,-0.0569932,-0.122999,-2.36827
11152508958,-2,2,-2,2,-3,-2,-2,-2,11152494790,0.122559,-0.0595703,0.996582,11152494790,-1.3125,-0.3125,0.625,11152494790,0.067627,-0.00317383,0.924683,-0.374573,-0.0569932,-0.122999,-2.36827
11152508958,1,3,-1,-1,0,-3,1,2,11152517264,0.121582,-0.0615234,0.995605,11152517264,-1.9375,-0.0625,0.8125,11152517264,0.067749,-0.00354004,0.924622,-0.374695,-0.0577849,-0.122941,-2.36795
11152518068,0,1,-3,3,1,6,-2,0,11152517264,0.121582,-0.0615234,0.995605,11152517264,-1.9375,-0.0625,0.8125,11152517264,0.067749,-0.00354004,0.924622,-0.374695,-0.0577849,-0.122941,-2.36795
11152518068,-1,1,-2,-4,3,0,1,-1,11152517264,0.121582,-0.0615234,0.995605,11152517264,-1.9375,-0.0625,0.8125,11152517264,0.067749,-0.00354004,0.924622,-0.374695,-0.0577849,-0.122941,-2.36795
11152532934,-3,-1,2,0,5,1,-1,-1,11152517264,0.121582,-0.0615234,0.995605,11152517264,-1.9375,-0.0625,0.8125,11152517264,0.067749,-0.00354004,0.924622,-0.374695,-0.0577849,-0.122941,-2.36795
11152532934,-2,-3,0,1,0,2,1,-2,11152533650,0.117188,-0.0698242,1.00488,11152533650,-0.5,-0.25,0.5625,11152533650,0.067749,-0.00354004,0.924622,-0.374695,-0.0577849,-0.122941,-2.36795
11152534494,-4,-2,-1,-2,0,-1,-1,0,11152533650,0.117188,-0.0698242,1.00488,11152533650,-0.5,-0.25,0.5625,11152533650,0.067749,-0.00354004,0.924622,-0.374695,-0.0577849,-0.122941,-2.36795
11152534494,-1,2,-3,6,2,-1,-2,0,11152533650,0.117188,-0.0698242,1.00488,11152533650,-0.5,-0.25,0.5625,11152533650,0.067749,-0.00354004,0.924622,-0.374695,-0.0577849,-0.122941,-2.36795
11152546606,2,1,-5,-4,-4,2,-1,-2,11152533650,0.117188,-0.0698242,1.00488,11152533650,-0.5,-0.25,0.5625,11152533650,0.067749,-0.00354004,0.924622,-0.374695,-0.0577849,-0.122941,-2.36795
11152546606,-1,-4,-1,-2,0,-2,-3,-2,11152562271,0.120117,-0.0654297,1,11152562271,0.625,-0.1875,0,11152562271,0.067749,-0.00360107,0.924622,-0.374695,-0.0578985,-0.122895,-2.36794
11152562946,-3,1,1,-4,1,-1,-2,-2,11152562271,0.120117,-0.0654297,1,11152562271,0.625,-0.1875,0,11152562271,0.067749,-0.00360107,0.924622,-0.374695,-0.0578985,-0.122895,-2.36794
11152562946,2,1,2,-6,2,2,-1,-2,11152562271,0.120117,-0.0654297,1,11152562271,0.625,-0.1875,0,11152562271,0.067749,-0.00360107,0.924622,-0.374695,-0.0578985,-0.122895,-2.36794
11152569064,1,-2,-1,-2,2,-2,1,-1,11152562271,0.120117,-0.0654297,1,11152562271,0.625,-0.1875,0,11152562271,0.067749,-0.00360107,0.924622,-0.374695,-0.0578985,-0.122895,-2.36794
11152569064,2,2,-2,-3,-1,0,1,2,11152577239,0.126465,-0.0595703,1,11152577239,0.375,-0.25,0.1875,11152577239,0.067749,-0.00360107,0.924622,-0.374695,-0.0578985,-0.122895,-2.36794
11152577977,-2,0,-1,-2,0,2,-2,1,11152577239,0.126465,-0.0595703,1,11152577239,0.375,-0.25,0.1875,11152577239,0.067749,-0.00360107,0.924622,-0.374695,-0.0578985,-0.122895,-2.36794
11152577977,2,-1,-3,-4,-4,0,1,0,11152577239,0.126465,-0.0595703,1,11152577239,0.375,-0.25,0.1875,11152577239,0.067749,-0.00360107,0.924622,-0.374695,-0.0578985,-0.122895,-2.36794
11152593327,-2,-1,1,-1,5,1,-1,0,11152577239,0.126465,-0.0595703,1,11152577239,0.375,-0.25,0.1875,11152577239,0.067749,-0.00360107,0.924622,-0.374695,-0.0578985,-0.122895,-2.36794
11152593327,-4,-2,-4,-4,-5,0,-1,-1,11152594149,0.12793,-0.0600586,0.998047,11152594149,-0.125,-0.375,0.625,11152594149,0.067749,-0.00360107,0.924622,-0.374695,-0.0578985,-0.122895,-2.36794
11152594902,-2,-4,-3,-1,-5,-3,2,0,11152594149,0.12793,-0.0600586,0.998047,11152594149,-0.125,-0.375,0.625,11152594149,0.067749,-0.00360107,0.924622,-0.374695,-0.0578985,-0.122895,-2.36794
11152594902,-1,-2,-5,-2,0,2,1,1,11152594149,0.12793,-0.0600586,0.998047,11152594149,-0.125,-0.375,0.625,11152594149,0.067749,-0.00360107,0.924622,-0.374695,-0.0578985,-0.122895,-2.36794
11152606560,-1,0,0,-3,-3,-3,-4,-3,11152594149,0.12793,-0.0600586,0.998047,11152594149,-0.125,-0.375,0.625,11152594149,0.067749,-0.00360107,0.924622,-0.374695,-0.0578985,-0.122895,-2.36794
11152606560,2,0,0,4,3,-1,0,-1,11152614778,0.125488,-0.0605469,1.00439,11152614778,-0.625,0,0.6875,11152614778,0.067749,-0.00360107,0.924622,-0.374695,-0.0578985,-0.122895,-2.36794
11152615585,1,2,-1,-4,-3,4,0,0,11152614778,0.125488,-0.0605469,1.00439,11152614778,-0.625,0,0.6875,11152614778,0.067749,-0.00360107,0.924622,-0.374695,-0.0578985,-0.122895,-2.36794
11152615585,-5,0,2,2,3,1,-2,-3,11152614778,0.125488,-0.0605469,1.00439,11152614778,-0.625,0,0.6875,11152614778,0.067749,-0.00360107,0.924622,-0.374695,-0.0578985,-0.122895,-2.36794
11152629045,0,1,-2,2,-2,1,0,1,11152614778,0.125488,-0.0605469,1.00439,11152614778,-0.625,0,0.6875,11152614778,0.067749,-0.00360107,0.924622,-0.374695,-0.0578985,-0.122895,-2.36794
11152629045,-2,-4,-1,-1,0,2,0,-1,11152637289,0.122559,-0.0634766,1.00439,11152637289,0,0.0625,0.25,11152637289,0.067749,-0.00360107,0.924622,-0.374695,-0.0578985,-0.122895,-2.36794
11152638050,0,0,-3,3,2,-2,-2,-2,11152637289,0.122559,-0.0634766,1.00439,11152637289,0,0.0625,0.25,11152637289,0.067749,-0.00360107,0.924622,-0.374695,-0.0578985,-0.122895,-2.36794
11152638050,-1,-3,0,-2,-4,1,0,2,11152637289,0.122559,-0.0634766,1.00439,11152637289,0,0.0625,0.25,11152637289,0.067749,-0.00360107,0.924622,-0.374695,-0.0578985,-0.122895,-2.36794
11152652958,-2,4,-2,1,6,4,0,-2,11152637289,0.122559,-0.0634766,1.00439,11152637289,0,0.0625,0.25,11152637289,0.067749,-0.00360107,0.924622,-0.374695,-0.0578985,-0.122895,-2.36794
11152652958,-5,2,2,0,-4,0,-3,0,11152653682,0.119629,-0.0639648,1.00049,11152653682,0.3125,-0.1875,0.125,11152653682,0.067749,-0.00360107,0.924622,-0.374695,-0.0578985,-0.122895,-2.36794
11152654490,0,1,-2,-1,3,0,-2,-1,11152653682,0.119629,-0.0639648,1.00049,11152653682,0.3125,-0.1875,0.125,11152653682,0.067749,-0.00360107,0.924622,-0.374695,-0.0578985,-0.122895,-2.36794
11152654490,0,-1,0,-2,-3,4,2,0,11152653682,0.119629,-0.0639648,1.00049,11152653682,0.3125,-0.1875,0.125,11152653682,0.067749,-0.00360107,0.924622,-0.374695,-0.0578985,-0.122895,-2.36794
11152666562,-2,-2,-1,0,-1,1,2,-2,11152653682,0.119629,-0.0639648,1.00049,11152653682,0.3125,-0.1875,0.125,11152653682,0.067749,-0.00360107,0.924622,-0.374695,-0.0578985,-0.122895,-2.36794
11152666562,1,1,-2,-1,-2,1,-4,-3,11152674674,0.127441,-0.0610352,1.00195,11152674674,0.0625,-0.3125,-0.125,11152674674,0.067749,-0.00360107,0.924622,-0.374695,-0.0578985,-0.122895,-2.36794
11152675479,-1,-1,2,0,-1,-1,-2,-2,11152674674,0.127441,-0.0610352,1.00195,11152674674,0.0625,-0.3125,-0.125,11152674674,0.067749,-0.00360107,0.924622,-0.374695,-0.0578985,-0.122895,-2.36794
11152675479,-3,-3,-2,0,-3,1,-7,2,11152674674,0.127441,-0.0610352,1.00195,11152674674,0.0625,-0.3125,-0.125,11152674674,0.067749,-0.00360107,0.924622,-0.374695,-0.0578985,-0.122895,-2.36794
11152689018,-4,-5,-1,-1,-2,-1,-2,2,11152674674,0.127441,-0.0610352,1.00195,11152674674,0.0625,-0.3125,-0.125,11152674674,0.067749,-0.00360107,0.924622,-0.374695,-0.0578985,-0.122895,-2.36794
11152689018,2,1,-2,-6,-2,-1,0,-2,11152697164,0.124023,-0.0625,0.994629,11152697164,-0.1875,-0.1875,0.5,11152697164,0.0678101,-0.00366211,0.924622,-0.374695,-0.0580591,-0.122963,-2.36794
11152697990,0,-3,3,-5,-2,1,1,-1,11152697164,0.124023,-0.0625,0.994629,11152697164,-0.1875,-0.1875,0.5,11152697164,0.0678101,-0.00366211,0.924622,-0.374695,-0.0580591,-0.122963,-2.36794
11152697990,0,0,-4,3,-1,1,2,-1,11152697164,0.124023,-0.0625,0.994629,11152697164,-0.1875,-0.1875,0.5,11152697164,0.0678101,-0.00366211,0.924622,-0.374695,-0.0580591,-0.122963,-2.36794
11152712801,0,0,3,-3,1,3,3,0,11152697164,0.124023,-0.0625,0.994629,11152697164,-0.1875,-0.1875,0.5,11152697164,0.0678101,-0.00366211,0.924622,-0.374695,-0.0580591,-0.122963,-2.36794
11152712801,-2,2,0,0,1,3,-2,0,11152713592,0.118652,-0.0620117,0.999512,11152713592,-0.1875,0,0.5,11152713592,0.067749,-0.00366211,0.924622,-0.374695,-0.0580121,-0.122849,-2.36794
11152714388,-4,-3,-2,0,0,2,1,-3,11152713592,0.118652,-0.0620117,0.999512,11152713592,-0.1875,0,0.5,11152713592,0.067749,-0.00366211,0.924622,-0.374695,-0.0580121,-0.122849,-2.36794
11152714388,2,-1,-1,-2,-2,-1,0,1,11152713592,0.118652,-0.0620117,0.999512,11152713592,-0.1875,0,0.5,11152713592,0.067749,-0.00366211,0.924622,-0.374695,-0.0580121,-0.122849,-2.36794
11152726478,2,1,0,0,0,1,-4,2,11152713592,0.118652,-0.0620117,0.999512,11152713592,-0.1875,0,0.5,11152713592,0.067749,-0.00366211,0.924622,-0.374695,-0.0580121,-0.122849,-2.36794
11152726478,-1,0,0,4,1,5,0,-3,11152734650,0.117188,-0.0576172,0.98877,11152734650,-0.75,0.3125,0.25,11152734650,0.067749,-0.00366211,0.924622,-0.374695,-0.0580121,-0.122849,-2.36794
11152735420,0,1,-2,-2,-4,0,0,0,11152734650,0.117188,-0.0576172,0.98877,11152734650,-0.75,0.3125,0.25,11152734650,0.067749,-0.00366211,0.924622,-0.374695,-0.0580121,-0.122849,-2.36794
11152735420,-4,1,4,0,-1,1,-1,-4,11152734650,0.117188,-0.0576172,0.98877,11152734650,-0.75,0.3125,0.25,11152734650,0.067749,-0.00366211,0.924622,-0.374695,-0.0580121,-0.122849,-2.36794
11152748941,0,0,-5,-2,-2,-1,-1,0,11152734650,0.117188,-0.0576172,0.98877,11152734650,-0.75,0.3125,0.25,11152734650,0.067749,-0.00366211,0.924622,-0.374695,-0.0580121,-0.122849,-2.36794
11152748941,3,-3,1,1,1,3,-1,1,11152757194,0.120605,-0.0605469,0.995117,11152757194,-1.875,0.125,0.125,11152757194,0.0678101,-0.00396729,0.924622,-0.374695,-0.058627,-0.122732,-2.36791
11152757979,-2,0,1,-3,2,-1,-3,0,11152757194,0.120605,-0.0605469,0.995117,11152757194,-1.875,0.125,0.125,11152757194,0.0678101,-0.00396729,0.924622,-0.374695,-0.058627,-0.122732,-2.36791
11152757979,-3,-5,-6,-2,-1,0,0,-3,11152757194,0.120605,-0.0605469,0.995117,11152757194,-1.875,0.125,0.125,11152757194,0.0678101,-0.00396729,0.924622,-0.374695,-0.058627,-0.122732,-2.36791
11152772820,0,-1,0,2,0,0,-2,-2,11152757194,0.120605,-0.0605469,0.995117,11152757194,-1.875,0.125,0.125,11152757194,0.0678101,-0.00396729,0.924622,-0.374695,-0.058627,-0.122732,-2.36791
11152772820,-1,-2,-1,0,-2,1,2,-2,11152773633,0.123047,-0.065918,1,11152773633,-1.8125,-0.0625,0.0625,11152773633,0.0679932,-0.0043335,0.924622,-0.374695,-0.0594495,-0.122797,-2.36788
11152774412,0,4,-5,1,0,3,-2,-3,11152773633,0.123047,-0.065918,1,11152773633,-1.8125,-0.0625,0.0625,11152773633,0.0679932,-0.0043335,0.924622,-0.374695,-0.0594495,-0.122797,-2.36788
11152774412,2,-2,4,4,2,-2,-3,0,11152773633,0.123047,-0.065918,1,11152773633,-1.8125,-0.0625,0.0625,11152773633,0.0679932,-0.0043335,0.924622,-0.374695,-0.0594495,-0.122797,-2.36788
11152786543,-1,1,-1,3,0,4,-1,-1,11152773633,0.123047,-0.065918,1,11152773633,-1.8125,-0.0625,0.0625,11152773633,0.0679932,-0.0043335,0.924622,-0.374695,-0.0594495,-0.122797,-2.36788
11152786543,-2,0,-1,0,1,3,1,-3,11152794734,0.117188,-0.0727539,1,11152794734,-0.4375,-0.4375,-0.0625,11152794734,0.0679932,-0.00439453,0.924622,-0.374695,-0.0595631,-0.122751,-2.36787
11152795486,0,-3,-1,2,-1,1,0,0,11152794734,0.117188,-0.0727539,1,11152794734,-0.4375,-0.4375,-0.0625,11152794734,0.0679932,-0.00439453,0.924622,-0.374695,-0.0595631,-0.122751,-2.36787
11152795486,0,-1,0,-3,2,-3,-3,-2,11152794734,0.117188,-0.0727539,1,11152794734,-0.4375,-0.4375,-0.0625,11152794734,0.0679932,-0.00439453,0.924622,-0.374695,-0.0595631,-0.122751,-2.36787
11152808982,-1,1,-4,-1,-1,-2,0,0,11152794734,0.117188,-0.0727539,1,11152794734,-0.4375,-0.4375,-0.0625,11152794734,0.0679932,-0.00439453,0.924622,-0.374695,-0.0595631,-0.122751,-2.36787
11152808982,-2,-1,-1,1,-4,-7,-1,2,11152817267,0.120117,-0.0639648,0.999023,11152817267,1.1875,-0.5,-0.0625,11152817267,0.0679321,-0.00421143,0.924622,-0.374756,-0.0591837,-0.122775,-2.36781
11152818014,1,0,1,0,1,1,-1,-2,11152817267,0.120117,-0.0639648,0.999023,11152817267,1.1875,-0.5,-0.0625,11152817267,0.0679321,-0.00421143,0.924622,-0.374756,-0.0591837,-0.122775,-2.36781
11152818014,-2,2,-1,-3,0,3,0,-2,11152817267,0.120117,-0.0639648,0.999023,11152817267,1.1875,-0.5,-0.0625,11152817267,0.0679321,-0.00421143,0.924622,-0.374756,-0.0591837,-0.122775,-2.36781
11152832898,-3,-2,-4,-4,-3,-3,0,-4,11152817267,0.120117,-0.0639648,0.999023,11152817267,1.1875,-0.5,-0.0625,11152817267,0.0679321,-0.00421143,0.924622,-0.374756,-0.0591837,-0.122775,-2.36781
11152832898,3,-2,-3,-5,1,0,0,3,11152833688,0.123047,-0.0668945,0.995117,11152833688,0.5625,-0.125,0.0625,11152833688,0.0679321,-0.00427246,0.924622,-0.374756,-0.0592972,-0.122729,-2.3678
11152834447,-1,-1,0,1,2,2,1,-1,11152833688,0.123047,-0.0668945,0.995117,11152833688,0.5625,-0.125,0.0625,11152833688,0.0679321,-0.00427246,0.924622,-0.374756,-0.0592972,-0.122729,-2.3678
11152834447,-1,1,-1,2,1,-2,-1,-2,11152833688,0.123047,-0.0668945,0.995117,11152833688,0.5625,-0.125,0.0625,11152833688,0.0679321,-0.00427246,0.924622,-0.374756,-0.0592972,-0.122729,-2.3678
11152846555,-2,0,2,-1,-2,1,0,-2,11152833688,0.123047,-0.0668945,0.995117,11152833688,0.5625,-0.125,0.0625,11152833688,0.0679321,-0.00427246,0.924622,-0.374756,-0.0592972,-0.122729,-2.3678
11152846555,-4,1,1,-3,4,1,-3,-3,11152854799,0.124512,-0.059082,1.00098,11152854799,-0.1875,0.125,0.1875,11152854799,0.0679932,-0.00427246,0.924622,-0.374756,-0.0593443,-0.122842,-2.3678
11152855515,-2,-5,-3,0,2,-4,-2,1,11152854799,0.124512,-0.059082,1.00098,11152854799,-0.1875,0.125,0.1875,11152854799,0.0679932,-0.00427246,0.924622,-0.374756,-0.0593443,-0.122842,-2.3678
11152855515,2,1,-1,1,2,-1,-4,-2,11152854799,0.124512,-0.059082,1.00098,11152854799,-0.1875,0.125,0.1875,11152854799,0.0679932,-0.00427246,0.924622,-0.374756,-0.0593443,-0.122842,-2.3678
11152869505,1,0,0,2,-3,0,-2,0,11152854799,0.124512,-0.059082,1.00098,11152854799,-0.1875,0.125,0.1875,11152854799,0.0679932,-0.00427246,0.924622,-0.374756,-0.0593443,-0.122842,-2.3678
11152869505,-2,1,-2,1,-3,1,-4,2,11152877299,0.128418,-0.0625,0.998047,11152877299,-0.0625,0.1875,0.25,11152877299,0.0679932,-0.00427246,0.924622,-0.374756,-0.0593443,-0.122842,-2.3678
11152878011,-1,-3,-2,0,1,1,2,1,11152877299,0.128418,-0.0625,0.998047,11152877299,-0.0625,0.1875,0.25,11152877299,0.0679932,-0.00427246,0.924622,-0.374756,-0.0593443,-0.122842,-2.3678
11152878011,-4,-2,-4,3,-2,-6,-2,1,11152877299,0.128418,-0.0625,0.998047,11152877299,-0.0625,0.1875,0.25,11152877299,0.0679932,-0.00427246,0.924622,-0.374756,-0.0593443,-0.122842,-2.3678
11152892896,0,-1,1,-2,-5,-1,-2,0,11152877299,0.128418,-0.0625,0.998047,11152877299,-0.0625,0.1875,0.25,11152877299,0.0679932,-0.00427246,0.924622,-0.374756,-0.0593443,-0.122842,-2.3678
11152892896,-2,-2,-1,-2,-5,-3,-3,-1,11152893742,0.127441,-0.0668945,0.993652,11152893742,0.0625,0.125,0.25,11152893742,0.0679932,-0.00427246,0.924622,-0.374756,-0.0593443,-0.122842,-2.3678
11152894481,-2,3,4,1,-2,-2,-2,-3,11152893742,0.127441,-0.0668945,0.993652,11152893742,0.0625,0.125,0.25,11152893742,0.0679932,-0.00427246,0.924622,-0.374756,-0.0593443,-0.122842,-2.3678
11152894481,-2,-5,-3,-1,-4,1,0,0,11152893742,0.127441,-0.0668945,0.993652,11152893742,0.0625,0.125,0.25,11152893742,0.0679932,-0.00427246,0.924622,-0.374756,-0.0593443,-0.122842,-2.3678
11152906537,-1,-1,-3,-3,2,0,0,-2,11152893742,0.127441,-0.0668945,0.993652,11152893742,0.0625,0.125,0.25,11152893742,0.0679932,-0.00427246,0.924622,-0.374756,-0.0593443,-0.122842,-2.3678
11152906537,1,2,1,-1,3,-3,1,0,11152914795,0.122559,-0.0698242,1.00098,11152914795,0.3125,0.125,0.1875,11152914795,0.0679932,-0.00427246,0.924622,-0.374756,-0.0593443,-0.122842,-2.3678
11152915513,-3,1,-1,-4,-1,0,-1,-1,11152914795,0.122559,-0.0698242,1.00098,11152914795,0.3125,0.125,0.1875,11152914795,0.0679932,-0.00427246,0.924622,-0.374756,-0.0593443,-0.122842,-2.3678
11152915513,-1,0,0,-3,-1,-1,1,-1,11152914795,0.122559,-0.0698242,1.00098,11152914795,0.3125,0.125,0.1875,11152914795,0.0679932,-0.00427246,0.924622,-0.374756,-0.0593443,-0.122842,-2.3678
11152929110,-1,-5,-2,-2,-3,-3,-1,0,11152914795,0.122559,-0.0698242,1.00098,11152914795,0.3125,0.125,0.1875,11152914795,0.0679932,-0.00427246,0.924622,-0.374756,-0.0593443,-0.122842,-2.3678
11152929110,1,-1,1,-2,0,4,-1,1,11152937253,0.118164,-0.0605469,0.997559,11152937253,0.6875,-0.1875,0.0625,11152937253,0.0679932,-0.0043335,0.924622,-0.374756,-0.0594578,-0.122796,-2.3678
11152938018,2,1,-2,2,-1,-1,1,-2,11152937253,0.118164,-0.0605469,0.997559,11152937253,0.6875,-0.1875,0.0625,11152937253,0.0679932,-0.0043335,0.924622,-0.374756,-0.0594578,-0.122796,-2.3678
11152938018,3,-1,0,-4,-5,0,-1,-2,11152937253,0.118164,-0.0605469,0.997559,11152937253,0.6875,-0.1875,0.0625,11152937253,0.0679932,-0.0043335,0.924622,-0.374756,-0.0594578,-0.122796,-2.3678
11152952896,-1,-1,0,2,7,3,-1,-3,11152937253,0.118164,-0.0605469,0.997559,11152937253,0.6875,-0.1875,0.0625,11152937253,0.0679932,-0.0043335,0.924622,-0.374756,-0.0594578,-0.122796,-2.3678
11152952896,-1,1,-3,-3,-1,1,2,1,11152953695,0.121582,-0.0610352,0.998535,11152953695,0.25,-0.375,-0.125,11152953695,0.0679932,-0.0043335,0.924622,-0.374756,-0.0594578,-0.122796,-2.3678
11152954475,0,-7,-2,0,-7,-1,0,-2,11152953695,0.121582,-0.0610352,0.998535,11152953695,0.25,-0.375,-0.125,11152953695,0.0679932,-0.0043335,0.924622,-0.374756,-0.0594578,-0.122796,-2.3678
11152954475,-3,-2,-1,-3,0,1,0,0,11152953695,0.121582,-0.0610352,0.998535,11152953695,0.25,-0.375,-0.125,11152953695,0.0679932,-0.0043335,0.924622,-0.374756,-0.0594578,-0.122796,-2.3678
11152966585,-4,-1,1,-4,0,1,-2,1,11152953695,0.121582,-0.0610352,0.998535,11152953695,0.25,-0.375,-0.125,11152953695,0.0679932,-0.0043335,0.924622,-0.374756,-0.0594578,-0.122796,-2.3678
11152966585,-2,-4,-3,-1,-3,0,0,-1,11152974701,0.119141,-0.0625,0.999023,11152974701,-0.75,-0.1875,0.125,11152974701,0.0679932,-0.0043335,0.924622,-0.374756,-0.0594578,-0.122796,-2.3678
11152975459,-2,1,-1,4,0,1,1,-1,11152974701,0.119141,-0.0625,0.999023,11152974701,-0.75,-0.1875,0.125,11152974701,0.0679932,-0.0043335,0.924622,-0.374756,-0.0594578,-0.122796,-2.3678
11152975459,-1,2,0,0,-4,-2,-1,-1,11152974701,0.119141,-0.0625,0.999023,11152974701,-0.75,-0.1875,0.125,11152974701,0.0679932,-0.0043335,0.924622,-0.374756,-0.0594578,-0.122796,-2.3678
11152988967,1,2,-1,-2,0,-6,-2,0,11152974701,0.119141,-0.0625,0.999023,11152974701,-0.75,-0.1875,0.125,11152974701,0.0679932,-0.0043335,0.924622,-0.374756,-0.0594578,-0.122796,-2.3678
11152988967,-2,-1,-3,2,1,-1,-2,0,11152997138,0.123047,-0.0634766,1.00049,11152997138,-0.9375,-0.25,0.375,11152997138,0.0679932,-0.0043335,0.924622,-0.374756,-0.0594578,-0.122796,-2.3678
11152997916,0,1,0,-4,-2,3,0,0,11152997138,0.123047,-0.0634766,1.00049,11152997138,-0.9375,-0.25,0.375,11152997138,0.0679932,-0.0043335,0.924622,-0.374756,-0.0594578,-0.122796,-2.3678
11152997916,-2,-6,-1,-2,2,4,-1,1,11152997138,0.123047,-0.0634766,1.00049,11152997138,-0.9375,-0.25,0.375,11152997138,0.0679932,-0.0043335,0.924622,-0.374756,-0.0594578,-0.122796,-2.3678
11153012844,0,-3,-4,2,-1,2,1,2,11152997138,0.123047,-0.0634766,1.00049,11152997138,-0.9375,-0.25,0.375,11152997138,0.0679932,-0.0043335,0.924622,-0.374756,-0.0594578,-0.122796,-2.3678
11153012844,-1,0,1,-1,0,3,-4,-2,11153013650,0.124023,-0.0649414,0.998535,11153013650,-0.125,-0.1875,0.5625,11153013650,0.0679932,-0.0043335,0.924622,-0.374756,-0.0594578,-0.122796,-2.3678
11153014436,-2,0,-3,0,-1,1,-2,-1,11153013650,0.124023,-0.0649414,0.998535,11153013650,-0.125,-0.1875,0.5625,11153013650,0.0679932,-0.0043335,0.924622,-0.374756,-0.0594578,-0.122796,-2.3678
11153014436,1,0,1,5,-1,0,1,0,11153013650,0.124023,-0.0649414,0.998535,11153013650,-0.125,-0.1875,0.5625,11153013650,0.0679932,-0.0043335,0.924622,-0.374756,-0.0594578,-0.122796,-2.3678
11153026457,-1,-4,-3,3,-6,1,-2,2,11153013650,0.124023,-0.0649414,0.998535,11153013650,-0.125,-0.1875,0.5625,11153013650,0.0679932,-0.0043335,0.924622,-0.374756,-0.0594578,-0.122796,-2.3678
11153026457,0,-1,-1,2,-1,2,2,-3,11153042728,0.125977,-0.0727539,1.00098,11153042728,0.5625,-0.0625,0.0625,11153042728,0.0679932,-0.00439453,0.924622,-0.374756,-0.0595714,-0.12275,-2.36779
11153043526,2,3,1,-3,0,-2,0,-1,11153042728,0.125977,-0.0727539,1.00098,11153042728,0.5625,-0.0625,0.0625,11153042728,0.0679932,-0.00439453,0.924622,-0.374756,-0.0595714,-0.12275,-2.36779
11153043526,-5,1,-2,5,2,0,1,-1,11153042728,0.125977,-0.0727539,1.00098,11153042728,0.5625,-0.0625,0.0625,11153042728,0.0679932,-0.00439453,0.924622,-0.374756,-0.0595714,-0.12275,-2.36779
11153048997,-2,1,-1,-1,1,0,3,0,11153042728,0.125977,-0.0727539,1.00098,11153042728,0.5625,-0.0625,0.0625,11153042728,0.0679932,-0.00439453,0.924622,-0.374756,-0.0595714,-0.12275,-2.36779
11153048997,-4,-2,0,1,-4,-3,-3,-3,11153057190,0.117188,-0.0639648,1.00049,11153057190,1.125,0,0,11153057190,0.0678711,-0.00427246,0.924622,-0.374756,-0.0592502,-0.122615,-2.3678
11153057943,-1,-4,-3,-1,-2,-1,-2,1,11153057190,0.117188,-0.0639648,1.00049,11153057190,1.125,0,0,11153057190,0.0678711,-0.00427246,0.924622,-0.374756,-0.0592502,-0.122615,-2.3678
11153057943,2,-1,-4,0,2,6,0,1,11153057190,0.117188,-0.0639648,1.00049,11153057190,1.125,0,0,11153057190,0.0678711,-0.00427246,0.924622,-0.374756,-0.0592502,-0.122615,-2.3678
11153072827,1,-1,2,-3,0,4,-1,-3,11153057190,0.117188,-0.0639648,1.00049,11153057190,1.125,0,0,11153057190,0.0678711,-0.00427246,0.924622,-0.374756,-0.0592502,-0.122615,-2.3678
11153072827,-2,-1,0,0,3,2,0,-4,11153073577,0.121582,-0.0595703,1.00049,11153073577,0.125,-0.1875,0.1875,11153073577,0.0678711,-0.00427246,0.924622,-0.374756,-0.0592502,-0.122615,-2.3678
11153074407,-1,-4,1,-5,0,0,-2,2,11153073577,0.121582,-0.0595703,1.00049,11153073577,0.125,-0.1875,0.1875,11153073577,0.0678711,-0.00427246,0.924622,-0.374756,-0.0592502,-0.122615,-2.3678
11153074407,0,1,0,1,-2,0,2,-4,11153073577,0.121582,-0.0595703,1.00049,11153073577,0.125,-0.1875,0.1875,11153073577,0.0678711,-0.00427246,0.924622,-0.374756,-0.0592502,-0.122615,-2.3678
11153086506,1,-3,-4,-1,-5,1,-1,0,11153073577,0.121582,-0.0595703,1.00049,11153073577,0.125,-0.1875,0.1875,11153073577,0.0678711,-0.00427246,0.924622,-0.374756,-0.0592502,-0.122615,-2.3678
11153086506,0,-1,-1,2,-1,0,-1,-1,11153094805,0.124023,-0.0620117,1.00244,11153094805,-0.1875,-0.3125,0.1875,11153094805,0.0678711,-0.00427246,0.924622,-0.374756,-0.0592502,-0.122615,-2.3678
11153095592,-1,1,0,0,1,2,1,-2,11153094805,0.124023,-0.0620117,1.00244,11153094805,-0.1875,-0.3125,0.1875,11153094805,0.0678711,-0.00427246,0.924622,-0.374756,-0.0592502,-0.122615,-2.3678
11153095592,-1,-1,-2,1,-1,2,-3,0,11153094805,0.124023,-0.0620117,1.00244,11153094805,-0.1875,-0.3125,0.1875,11153094805,0.0678711,-0.00427246,0.924622,-0.374756,-0.0592502,-0.122615,-2.3678
11153108952,0,2,1,1,0,0,-2,-2,11153094805,0.124023,-0.0620117,1.00244,11153094805,-0.1875,-0.3125,0.1875,11153094805,0.0678711,-0.00427246,0.924622,-0.374756,-0.0592502,-0.122615,-2.3678
11153108952,-2,0,-3,-1,-1,-1,-1,0,11153117295,0.122559,-0.0693359,0.996094,11153117295,0,-0.25,0.0625,11153117295,0.0678711,-0.0043335,0.924622,-0.374756,-0.0593638,-0.122569,-2.3678
11153118006,1,-1,-1,3,2,2,-1,0,11153117295,0.122559,-0.0693359,0.996094,11153117295,0,-0.25,0.0625,11153117295,0.0678711,-0.0043335,0.924622,-0.374756,-0.0593638,-0.122569,-2.3678
11153118006,0,-2,-1,0,1,1,1,-5,11153117295,0.122559,-0.0693359,0.996094,11153117295,0,-0.25,0.0625,11153117295,0.0678711,-0.0043335,0.924622,-0.374756,-0.0593638,-0.122569,-2.3678
11153132897,1,2,0,-1,3,4,-3,0,11153117295,0.122559,-0.0693359,0.996094,11153117295,0,-0.25,0.0625,11153117295,0.0678711,-0.0043335,0.924622,-0.374756,-0.0593638,-0.122569,-2.3678
11153132897,1,-1,-2,-2,-4,0,2,1,11153133685,0.120605,-0.065918,0.997559,11153133685,0.4375,-0.3125,-0.3125,11153133685,0.0678711,-0.0043335,0.924622,-0.374756,-0.0593638,-0.122569,-2.3678
11153134506,-4,-1,0,6,2,2,-2,-3,11153133685,0.120605,-0.065918,0.997559,11153133685,0.4375,-0.3125,-0.3125,11153133685,0.0678711,-0.0043335,0.924622,-0.374756,-0.0593638,-0.122569,-2.3678
11153134506,-3,-2,0,-5,-4,0,-3,0,11153133685,0.120605,-0.065918,0.997559,11153133685,0.4375,-0.3125,-0.3125,11153133685,0.0678711,-0.0043335,0.924622,-0.374756,-0.0593638,-0.122569,-2.3678
11153147038,0,-1,-1,-2,3,4,1,-2,11153133685,0.120605,-0.065918,0.997559,11153133685,0.4375,-0.3125,-0.3125,11153133685,0.0678711,-0.0043335,0.924622,-0.374756,-0.0593638,-0.122569,-2.3678
11153147038,0,-3,0,0,2,2,-1,-3,11153154760,0.125,-0.0620117,0.999023,11153154760,0.125,-0.75,-0.25,11153154760,0.0679321,-0.0043335,0.924622,-0.374756,-0.0594108,-0.122683,-2.3678
11153155511,-1,-1,-5,-1,-2,2,-1,1,11153154760,0.125,-0.0620117,0.999023,11153154760,0.125,-0.75,-0.25,11153154760,0.0679321,-0.0043335,0.924622,-0.374756,-0.0594108,-0.122683,-2.3678
11153155511,-1,0,0,-1,4,4,2,-3,11153154760,0.125,-0.0620117,0.999023,11153154760,0.125,-0.75,-0.25,11153154760,0.0679321,-0.0043335,0.924622,-0.374756,-0.0594108,-0.122683,-2.3678
11153169108,-4,0,2,2,-2,-2,-1,0,11153154760,0.125,-0.0620117,0.999023,11153154760,0.125,-0.75,-0.25,11153154760,0.0679321,-0.0043335,0.924622,-0.374756,-0.0594108,-0.122683,-2.3678
11153169108,-2,-3,-2,-2,-2,2,-2,-2,11153184743,0.119629,-0.0620117,0.999023,11153184743,-0.375,-0.875,-0.125,11153184743,0.0678711,-0.0043335,0.924622,-0.374756,-0.0593638,-0.122569,-2.3678
11153185568,0,-1,-1,-3,-1,-3,-2,-5,11153184743,0.119629,-0.0620117,0.999023,11153184743,-0.375,-0.875,-0.125,11153184743,0.0678711,-0.0043335,0.924622,-0.374756,-0.0593638,-0.122569,-2.3678
11153185568,2,4,-1,1,4,1,-1,0,11153184743,0.119629,-0.0620117,0.999023,11153184743,-0.375,-0.875,-0.125,11153184743,0.0678711,-0.0043335,0.924622,-0.374756,-0.0593638,-0.122569,-2.3678
11153192880,-3,-1,0,1,-1,-2,2,-2,11153184743,0.119629,-0.0620117,0.999023,11153184743,-0.375,-0.875,-0.125,11153184743,0.0678711,-0.0043335,0.924622,-0.374756,-0.0593638,-0.122569,-2.3678
11153192880,-3,0,-4,-1,-3,-5,-1,0,11153193684,0.120605,-0.0556641,0.996094,11153193684,-0.4375,-0.9375,-0.25,11153193684,0.0678711,-0.0043335,0.924622,-0.374756,-0.0593638,-0.122569,-2.3678
11153194448,-2,-1,0,0,-3,-4,-1,-3,11153193684,0.120605,-0.0556641,0.996094,11153193684,-0.4375,-0.9375,-0.25,11153193684,0.0678711,-0.0043335,0.924622,-0.374756,-0.0593638,-0.122569,-2.3678
11153194448,-1,-2,0,-1,0,1,-3,0,11153193684,0.120605,-0.0556641,0.996094,11153193684,-0.4375,-0.9375,-0.25,11153193684,0.0678711,-0.0043335,0.924622,-0.374756,-0.0593638,-0.122569,-2.3678
11153206580,1,-1,2,0,4,-1,1,-2,11153193684,0.120605,-0.0556641,0.996094,11153193684,-0.4375,-0.9375,-0.25,11153193684,0.0678711,-0.0043335,0.924622,-0.374756,-0.0593638,-0.122569,-2.3678
11153206580,2,-1,1,4,2,0,-2,-2,11153214794,0.128418,-0.0644531,0.998535,11153214794,-1.9375,-0.625,0.1875,11153214794,0.0681763,-0.00463867,0.924561,-0.374817,-0.0601746,-0.122898,-2.36756
11153215608,0,-2,-1,-2,1,4,0,0,11153214794,0.128418,-0.0644531,0.998535,11153214794,-1.9375,-0.625,0.1875,11153214794,0.0681763,-0.00463867,0.924561,-0.374817,-0.0601746,-0.122898,-2.36756
11153215608,-1,1,2,1,-2,-4,-1,2,11153214794,0.128418,-0.0644531,0.998535,11153214794,-1.9375,-0.625,0.1875,11153214794,0.0681763,-0.00463867,0.924561,-0.374817,-0.0601746,-0.122898,-2.36756
11153228978,-5,-2,-4,0,-2,-1,-1,0,11153214794,0.128418,-0.0644531,0.998535,11153214794,-1.9375,-0.625,0.1875,11153214794,0.0681763,-0.00463867,0.924561,-0.374817,-0.0601746,-0.122898,-2.36756
11153228978,0,1,3,-1,5,-3,-3,-2,11153237294,0.124023,-0.0708008,0.998047,11153237294,-1.8125,-0.5625,0.625,11153237294,0.0684204,-0.00500488,0.9245,-0.374878,-0.061052,-0.123067,-2.36732
11153238045,2,0,-2,-2,-3,-2,0,0,11153237294,0.124023,-0.0708008,0.998047,11153237294,-1.8125,-0.5625,0.625,11153237294,0.0684204,-0.00500488,0.9245,-0.374878,-0.061052,-0.123067,-2.36732
11153238045,2,-1,0,1,4,1,-1,-2,11153237294,0.124023,-0.0708008,0.998047,11153237294,-1.8125,-0.5625,0.625,11153237294,0.0684204,-0.00500488,0.9245,-0.374878,-0.061052,-0.123067,-2.36732
11153252965,-2,0,-4,-3,-2,2,1,-4,11153237294,0.124023,-0.0708008,0.998047,11153237294,-1.8125,-0.5625,0.625,11153237294,0.0684204,-0.00500488,0.9245,-0.374878,-0.061052,-0.123067,-2.36732
11153252965,2,3,1,-4,-1,-4,1,0,11153253687,0.122559,-0.0791016,1.00146,11153253687,-0.4375,-0.375,0.3125,11153253687,0.0684204,-0.00500488,0.9245,-0.374878,-0.061052,-0.123067,-2.36732
11153254441,-1,-1,0,-2,3,-4,-1,-1,11153253687,0.122559,-0.0791016,1.00146,11153253687,-0.4375,-0.375,0.3125,11153253687,0.0684204,-0.00500488,0.9245,-0.374878,-0.061052,-0.123067,-2.36732
11153254441,-4,1,0,-5,-3,-1,-2,-3,11153253687,0.122559,-0.0791016,1.00146,11153253687,-0.4375,-0.375,0.3125,11153253687,0.0684204,-0.00500488,0.9245,-0.374878,-0.061052,-0.123067,-2.36732
11153266482,3,3,2,-1,3,-3,1,0,11153253687,0.122559,-0.0791016,1.00146,11153253687,-0.4375,-0.375,0.3125,11153253687,0.0684204,-0.00500488,0.9245,-0.374878,-0.061052,-0.123067,-2.36732
11153266482,-2,-2,0,-2,-2,3,-1,-1,11153274668,0.114258,-0.0664062,0.998535,11153274668,1.3125,-0.5625,-0.4375,11153274668,0.0683594,-0.00488281,0.9245,-0.374878,-0.0607778,-0.123046,-2.36733
11153275491,-3,-4,-1,-1,-4,2,-3,1,11153274668,0.114258,-0.0664062,0.998535,11153274668,1.3125,-0.5625,-0.4375,11153274668,0.0683594,-0.00488281,0.9245,-0.374878,-0.0607778,-0.123046,-2.36733
11153275491,-1,-2,-2,-1,-4,-4,-2,0,11153274668,0.114258,-0.0664062,0.998535,11153274668,1.3125,-0.5625,-0.4375,11153274668,0.0683594,-0.00488281,0.9245,-0.374878,-0.0607778,-0.123046,-2.36733
11153289001,-4,-2,-4,-4,-2,-3,-1,1,11153274668,0.114258,-0.0664062,0.998535,11153274668,1.3125,-0.5625,-0.4375,11153274668,0.0683594,-0.00488281,0.9245,-0.374878,-0.0607778,-0.123046,-2.36733
11153289001,-1,-2,-2,-1,0,-1,2,2,11153297216,0.125488,-0.0678711,0.992676,11153297216,1.4375,-0.625,-0.25,11153297216,0.0684204,-0.00469971,0.924561,-0.374817,-0.0604763,-0.123307,-2.36755
11153297994,-1,0,0,1,-2,-2,-3,-1,11153297216,0.125488,-0.0678711,0.992676,11153297216,1.4375,-0.625,-0.25,11153297216,0.0684204,-0.00469971,0.924561,-0.374817,-0.0604763,-0.123307,-2.36755
11153297994,-1,-4,-1,-5,-3,-3,-2,0,11153297216,0.125488,-0.0678711,0.992676,11153297216,1.4375,-0.625,-0.25,11153297216,0.0684204,-0.00469971,0.924561,-0.374817,-0.0604763,-0.123307,-2.36755
11153312174,-6,-5,-2,-5,-5,-2,-1,-2,11153297216,0.125488,-0.0678711,0.992676,11153297216,1.4375,-0.625,-0.25,11153297216,0.0684204,-0.00469971,0.924561,-0.374817,-0.0604763,-0.123307,-2.36755
11153312174,0,-1,-1,0,0,1,-1,0,11153312937,0.129395,-0.065918,0.999023,11153312937,-0.25,-0.375,0.5,11153312937,0.0684204,-0.00469971,0.9245,-0.374817,-0.0604758,-0.123298,-2.36743
11153318956,-5,0,-5,-3,-2,-3,-1,-1,11153312937,0.129395,-0.065918,0.999023,11153312937,-0.25,-0.375,0.5,11153312937,0.0684204,-0.00469971,0.9245,-0.374817,-0.0604758,-0.123298,-2.36743
11153318956,-2,-1,-1,-2,-7,-1,-3,0,11153312937,0.129395,-0.065918,0.999023,11153312937,-0.25,-0.375,0.5,11153312937,0.0684204,-0.00469971,0.9245,-0.374817,-0.0604758,-0.123298,-2.36743
11153326447,0,1,-1,0,1,3,-1,-2,11153312937,0.129395,-0.065918,0.999023,11153312937,-0.25,-0.375,0.5,11153312937,0.0684204,-0.00469971,0.9245,-0.374817,-0.0604758,-0.123298,-2.36743
11153326447,0,1,-1,2,-1,-1,1,-2,11153334670,0.125488,-0.0649414,1.00146,11153334670,0.125,-0.125,0.5625,11153334670,0.0684204,-0.00469971,0.9245,-0.374817,-0.0604758,-0.123298,-2.36743
11153335445,1,0,-1,0,-1,1,1,0,11153334670,0.125488,-0.0649414,1.00146,11153334670,0.125,-0.125,0.5625,11153334670,0.0684204,-0.00469971,0.9245,-0.374817,-0.0604758,-0.123298,-2.36743
11153335445,-6,0,0,-2,-3,-2,-2,-1,11153334670,0.125488,-0.0649414,1.00146,11153334670,0.125,-0.125,0.5625,11153334670,0.0684204,-0.00469971,0.9245,-0.374817,-0.0604758,-0.123298,-2.36743
11153349085,0,-3,-4,-1,1,-1,-2,-2,11153334670,0.125488,-0.0649414,1.00146,11153334670,0.125,-0.125,0.5625,11153334670,0.0684204,-0.00469971,0.9245,-0.374817,-0.0604758,-0.123298,-2.36743
11153349085,-2,0,-3,-1,-3,2,-3,-2,11153357205,0.123535,-0.0625,1.00391,11153357205,0.6875,-0.125,-0.0625,11153357205,0.0684204,-0.00469971,0.9245,-0.374817,-0.0604758,-0.123298,-2.36743
11153357944,-3,-6,0,-2,-6,0,-5,-2,11153357205,0.123535,-0.0625,1.00391,11153357205,0.6875,-0.125,-0.0625,11153357205,0.0684204,-0.00469971,0.9245,-0.374817,-0.0604758,-0.123298,-2.36743
11153357944,0,0,-4,1,1,-6,2,1,11153357205,0.123535,-0.0625,1.00391,11153357205,0.6875,-0.125,-0.0625,11153357205,0.0684204,-0.00469971,0.9245,-0.374817,-0.0604758,-0.123298,-2.36743
11153372184,0,-1,0,2,-4,-2,-1,2,11153357205,0.123535,-0.0625,1.00391,11153357205,0.6875,-0.125,-0.0625,11153357205,0.0684204,-0.00469971,0.9245,-0.374817,-0.0604758,-0.123298,-2.36743
11153372184,-2,3,-2,-3,-2,0,2,-1,11153373032,0.125488,-0.0629883,0.999023,11153373032,0.5625,-0.1875,-0.25,11153373032,0.0684204,-0.00469971,0.9245,-0.374817,-0.0604758,-0.123298,-2.36743
11153378992,-1,-3,-1,-3,-3,-1,-2,1,11153373032,0.125488,-0.0629883,0.999023,11153373032,0.5625,-0.1875,-0.25,11153373032,0.0684204,-0.00469971,0.9245,-0.374817,-0.0604758,-0.123298,-2.36743
11153378992,-1,-4,-2,-3,-2,3,0,-3,11153373032,0.125488,-0.0629883,0.999023,11153373032,0.5625,-0.1875,-0.25,11153373032,0.0684204,-0.00469971,0.9245,-0.374817,-0.0604758,-0.123298,-2.36743
11153395422,-4,-2,2,-2,-1,2,0,1,11153373032,0.125488,-0.0629883,0.999023,11153373032,0.5625,-0.1875,-0.25,11153373032,0.0684204,-0.00469971,0.9245,-0.374817,-0.0604758,-0.123298,-2.36743
11153395422,-9,-6,-4,-2,-5,-1,-3,-1,11153396187,0.128906,-0.0654297,0.991699,11153396187,-0.625,-0.0625,0,11153396187,0.0684814,-0.00469971,0.9245,-0.374817,-0.0605228,-0.123412,-2.36743
11153396958,-3,4,-4,1,6,5,3,-1,11153396187,0.128906,-0.0654297,0.991699,11153396187,-0.625,-0.0625,0,11153396187,0.0684814,-0.00469971,0.9245,-0.374817,-0.0605228,-0.123412,-2.36743
11153396958,0,-4,-2,-1,-2,-1,-2,-3,11153396187,0.128906,-0.0654297,0.991699,11153396187,-0.625,-0.0625,0,11153396187,0.0684814,-0.00469971,0.9245,-0.374817,-0.0605228,-0.123412,-2.36743
11153408976,-4,-1,-4,3,-2,1,-1,1,11153396187,0.128906,-0.0654297,0.991699,11153396187,-0.625,-0.0625,0,11153396187,0.0684814,-0.00469971,0.9245,-0.374817,-0.0605228,-0.123412,-2.36743
11153408976,1,-4,1,-2,-3,3,-5,-1,11153417301,0.122559,-0.074707,0.997559,11153417301,-0.8125,0,0.25,11153417301,0.0684814,-0.00476074,0.9245,-0.374817,-0.0606364,-0.123366,-2.36742
11153418019,-3,1,2,0,3,-1,2,0,11153417301,0.122559,-0.074707,0.997559,11153417301,-0.8125,0,0.25,11153417301,0.0684814,-0.00476074,0.9245,-0.374817,-0.0606364,-0.123366,-2.36742
11153418019,-1,-2,-7,-1,0,2,0,3,11153417301,0.122559,-0.074707,0.997559,11153417301,-0.8125,0,0.25,11153417301,0.0684814,-0.00476074,0.9245,-0.374817,-0.0606364,-0.123366,-2.36742
11153432309,1,-2,3,2,-3,-2,1,-3,11153417301,0.122559,-0.074707,0.997559,11153417301,-0.8125,0,0.25,11153417301,0.0684814,-0.00476074,0.9245,-0.374817,-0.0606364,-0.123366,-2.36742
11153432309,0,-1,-2,1,2,1,-1,-1,11153433025,0.122559,-0.0698242,1.00049,11153433025,-0.0625,-0.0625,0.125,11153433025,0.0684814,-0.00476074,0.9245,-0.374817,-0.0606364,-0.123366,-2.36742
11153439061,-1,-2,-1,-3,0,0,-1,-2,11153433025,0.122559,-0.0698242,1.00049,11153433025,-0.0625,-0.0625,0.125,11153433025,0.0684814,-0.00476074,0.9245,-0.374817,-0.0606364,-0.123366,-2.36742
11153439061,-3,3,-2,0,-1,0,-3,1,11153433025,0.122559,-0.0698242,1.00049,11153433025,-0.0625,-0.0625,0.125,11153433025,0.0684814,-0.00476074,0.9245,-0.374817,-0.0606364,-0.123366,-2.36742
11153455354,-1,-3,-3,-4,-1,4,0,1,11153433025,0.122559,-0.0698242,1.00049,11153433025,-0.0625,-0.0625,0.125,11153433025,0.0684814,-0.00476074,0.9245,-0.374817,-0.0606364,-0.123366,-2.36742
11153455354,-2,-1,-1,0,-4,1,-5,1,11153456183,0.124512,-0.0678711,1.00342,11153456183,0.375,-0.1875,0,11153456183,0.0684814,-0.00482178,0.9245,-0.374817,-0.06075,-0.12332,-2.36742
11153456988,2,-1,-2,1,-1,-3,-1,0,11153456183,0.124512,-0.0678711,1.00342,11153456183,0.375,-0.1875,0,11153456183,0.0684814,-0.00482178,0.9245,-0.374817,-0.06075,-0.12332,-2.36742
11153456988,-2,1,0,1,2,3,0,-4,11153456183,0.124512,-0.0678711,1.00342,11153456183,0.375,-0.1875,0,11153456183,0.0684814,-0.00482178,0.9245,-0.374817,-0.06075,-0.12332,-2.36742
11153469078,-3,-2,-3,-5,-4,1,-2,-4,11153456183,0.124512,-0.0678711,1.00342,11153456183,0.375,-0.1875,0,11153456183,0.0684814,-0.00482178,0.9245,-0.374817,-0.06075,-0.12332,-2.36742
11153469078,-2,-2,-1,0,3,1,2,-1,11153477222,0.126465,-0.0639648,1.00293,11153477222,0.3125,-0.0625,0.1875,11153477222,0.0684814,-0.00482178,0.9245,-0.374817,-0.06075,-0.12332,-2.36742
11153478031,-2,3,-1,-2,0,-1,0,0,11153477222,0.126465,-0.0639648,1.00293,11153477222,0.3125,-0.0625,0.1875,11153477222,0.0684814,-0.00482178,0.9245,-0.374817,-0.06075,-0.12332,-2.36742
11153478031,0,-1,1,3,-4,2,1,1,11153477222,0.126465,-0.0639648,1.00293,11153477222,0.3125,-0.0625,0.1875,11153477222,0.0684814,-0.00482178,0.9245,-0.374817,-0.06075,-0.12332,-2.36742
11153492677,0,2,-1,3,4,2,-1,3,11153477222,0.126465,-0.0639648,1.00293,11153477222,0.3125,-0.0625,0.1875,11153477222,0.0684814,-0.00482178,0.9245,-0.374817,-0.06075,-0.12332,-2.36742
11153492677,0,-1,0,1,0,1,-1,-3,11153493470,0.123535,-0.065918,0.995605,11153493470,-0.375,-0.0625,0.375,11153493470,0.0684814,-0.00482178,0.9245,-0.374817,-0.06075,-0.12332,-2.36742
11153499107,0,1,-2,5,1,1,1,-2,11153493470,0.123535,-0.065918,0.995605,11153493470,-0.375,-0.0625,0.375,11153493470,0.0684814,-0.00482178,0.9245,-0.374817,-0.06075,-0.12332,-2.36742
11153499107,0,-2,-2,-4,-1,1,0,-1,11153493470,0.123535,-0.065918,0.995605,11153493470,-0.375,-0.0625,0.375,11153493470,0.0684814,-0.00482178,0.9245,-0.374817,-0.06075,-0.12332,-2.36742
11153515345,1,-1,2,1,-3,2,-3,-4,11153493470,0.123535,-0.065918,0.995605,11153493470,-0.375,-0.0625,0.375,11153493470,0.0684814,-0.00482178,0.9245,-0.374817,-0.06075,-0.12332,-2.36742
11153515345,-1,-1,1,-1,0,6,-1,-3,11153516183,0.124512,-0.065918,0.995117,11153516183,0.4375,-0.0625,0.125,11153516183,0.0685425,-0.00482178,0.9245,-0.374817,-0.060797,-0.123434,-2.36742
11153516962,3,0,0,1,-3,5,3,-3,11153516183,0.124512,-0.065918,0.995117,11153516183,0.4375,-0.0625,0.125,11153516183,0.0685425,-0.00482178,0.9245,-0.374817,-0.060797,-0.123434,-2.36742
11153516962,1,3,2,1,9,2,-3,-2,11153516183,0.124512,-0.065918,0.995117,11153516183,0.4375,-0.0625,0.125,11153516183,0.0685425,-0.00482178,0.9245,-0.374817,-0.060797,-0.123434,-2.36742
11153529036,2,0,-5,4,-4,4,-4,0,11153516183,0.124512,-0.065918,0.995117,11153516183,0.4375,-0.0625,0.125,11153516183,0.0685425,-0.00482178,0.9245,-0.374817,-0.060797,-0.123434,-2.36742
11153529036,-2,1,-1,0,0,0,0,-2,11153537281,0.121094,-0.0605469,0.993164,11153537281,0.6875,-0.3125,-0.1875,11153537281,0.0684814,-0.00482178,0.9245,-0.374817,-0.06075,-0.12332,-2.36742
11153538072,-3,-4,0,-2,1,3,0,0,11153537281,0.121094,-0.0605469,0.993164,11153537281,0.6875,-0.3125,-0.1875,11153537281,0.0684814,-0.00482178,0.9245,-0.374817,-0.06075,-0.12332,-2.36742
11153538072,-1,3,0,0,3,9,2,-4,11153537281,0.121094,-0.0605469,0.993164,11153537281,0.6875,-0.3125,-0.1875,11153537281,0.0684814,-0.00482178,0.9245,-0.374817,-0.06075,-0.12332,-2.36742
11153552207,1,0,3,2,0,3,0,-1,11153537281,0.121094,-0.0605469,0.993164,11153537281,0.6875,-0.3125,-0.1875,11153537281,0.0684814,-0.00482178,0.9245,-0.374817,-0.06075,-0.12332,-2.36742
11153552207,-2,-2,-2,2,0,-3,2,-2,11153553005,0.125977,-0.0629883,0.993164,11153553005,-0.75,-0.3125,0.25,11153553005,0.0685425,-0.00482178,0.9245,-0.374817,-0.060797,-0.123434,-2.36742
11153558958,1,-1,-2,0,-2,-1,-4,-2,11153553005,0.125977,-0.0629883,0.993164,11153553005,-0.75,-0.3125,0.25,11153553005,0.0685425,-0.00482178,0.9245,-0.374817,-0.060797,-0.123434,-2.36742
11153558958,3,0,-5,-2,1,1,1,1,11153553005,0.125977,-0.0629883,0.993164,11153553005,-0.75,-0.3125,0.25,11153553005,0.0685425,-0.00482178,0.9245,-0.374817,-0.060797,-0.123434,-2.36742
11153575353,1,-1,-1,-1,-3,-1,2,-4,11153553005,0.125977,-0.0629883,0.993164,11153553005,-0.75,-0.3125,0.25,11153553005,0.0685425,-0.00482178,0.9245,-0.374817,-0.060797,-0.123434,-2.36742
11153575353,-2,-1,0,-1,-5,-3,2,1,11153576141,0.125977,-0.0693359,0.999023,11153576141,-1.375,-0.4375,0.3125,11153576141,0.0687256,-0.00512695,0.9245,-0.374878,-0.0615145,-0.123544,-2.36731
11153576926,-2,-2,1,-4,3,2,-2,-4,11153576141,0.125977,-0.0693359,0.999023,11153576141,-1.375,-0.4375,0.3125,11153576141,0.0687256,-0.00512695,0.9245,-0.374878,-0.0615145,-0.123544,-2.36731
11153576926,1,-2,3,3,3,5,-1,-1,11153576141,0.125977,-0.0693359,0.999023,11153576141,-1.375,-0.4375,0.3125,11153576141,0.0687256,-0.00512695,0.9245,-0.374878,-0.0615145,-0.123544,-2.36731
11153597793,0,1,1,-1,1,1,-4,-2,11153576141,0.125977,-0.0693359,0.999023,11153576141,-1.375,-0.4375,0.3125,11153576141,0.0687256,-0.00512695,0.9245,-0.374878,-0.0615145,-0.123544,-2.36731
11153597793,2,0,-2,2,2,-1,0,0,11153598612,0.123047,-0.0698242,1.00391,11153598612,-0.6875,-0.5,0.4375,11153598612,0.0687256,-0.00512695,0.9245,-0.374878,-0.0615145,-0.123544,-2.36731
11153599395,1,1,2,-1,2,-3,-1,-1,11153598612,0.123047,-0.0698242,1.00391,11153598612,-0.6875,-0.5,0.4375,11153598612,0.0687256,-0.00512695,0.9245,-0.374878,-0.0615145,-0.123544,-2.36731
11153599395,-2,1,-4,3,-1,-2,1,-2,11153598612,0.123047,-0.0698242,1.00391,11153598612,-0.6875,-0.5,0.4375,11153598612,0.0687256,-0.00512695,0.9245,-0.374878,-0.0615145,-0.123544,-2.36731
11153612203,-5,-2,-3,-2,1,-4,-5,1,11153598612,0.123047,-0.0698242,1.00391,11153598612,-0.6875,-0.5,0.4375,11153598612,0.0687256,-0.00512695,0.9245,-0.374878,-0.0615145,-0.123544,-2.36731
11153612203,2,4,0,-2,-1,1,-1,-4,11153612997,0.125,-0.0703125,1.00928,11153612997,-0.3125,-0.5,0.4375,11153612997,0.0687256,-0.00512695,0.9245,-0.374878,-0.0615145,-0.123544,-2.36731
11153619027,1,-2,-4,0,-1,0,-1,1,11153612997,0.125,-0.0703125,1.00928,11153612997,-0.3125,-0.5,0.4375,11153612997,0.0687256,-0.00512695,0.9245,-0.374878,-0.0615145,-0.123544,-2.36731
11153619027,-4,-1,1,1,-2,-2,2,2,11153612997,0.125,-0.0703125,1.00928,11153612997,-0.3125,-0.5,0.4375,11153612997,0.0687256,-0.00512695,0.9245,-0.374878,-0.0615145,-0.123544,-2.36731
11153635375,0,-1,-3,-3,-1,-4,-3,-1,11153612997,0.125,-0.0703125,1.00928,11153612997,-0.3125,-0.5,0.4375,11153612997,0.0687256,-0.00512695,0.9245,-0.374878,-0.0615145,-0.123544,-2.36731
11153635375,0,1,-1,-1,4,2,-1,-1,11153636135,0.121094,-0.0712891,1.00391,11153636135,0.25,-0.3125,0,11153636135,0.0687256,-0.00518799,0.9245,-0.374878,-0.0616281,-0.123498,-2.3673
11153636954,0,-1,-2,-3,-5,-2,-2,0,11153636135,0.121094,-0.0712891,1.00391,11153636135,0.25,-0.3125,0,11153636135,0.0687256,-0.00518799,0.9245,-0.374878,-0.0616281,-0.123498,-2.3673
11153636954,2,-1,1,2,3,-4,-4,-2,11153636135,0.121094,-0.0712891,1.00391,11153636135,0.25,-0.3125,0,11153636135,0.0687256,-0.00518799,0.9245,-0.374878,-0.0616281,-0.123498,-2.3673
11153648942,0,1,-3,-3,-4,1,3,0,11153636135,0.121094,-0.0712891,1.00391,11153636135,0.25,-0.3125,0,11153636135,0.0687256,-0.00518799,0.9245,-0.374878,-0.0616281,-0.123498,-2.3673
11153648942,-1,0,0,2,2,2,-1,-1,11153657205,0.122559,-0.0708008,1.00684,11153657205,1.5,-0.3125,-0.0625,11153657205,0.0686646,-0.00500488,0.9245,-0.374939,-0.0612487,-0.123522,-2.36724
11153658005,0,-2,-3,-3,-5,-5,2,1,11153657205,0.122559,-0.0708008,1.00684,11153657205,1.5,-0.3125,-0.0625,11153657205,0.0686646,-0.00500488,0.9245,-0.374939,-0.0612487,-0.123522,-2.36724
11153658005,1,-2,-1,-4,0,-3,-1,-1,11153657205,0.122559,-0.0708008,1.00684,11153657205,1.5,-0.3125,-0.0625,11153657205,0.0686646,-0.00500488,0.9245,-0.374939,-0.0612487,-0.123522,-2.36724
11153672181,1,-2,2,0,1,-1,-1,-2,11153657205,0.122559,-0.0708008,1.00684,11153657205,1.5,-0.3125,-0.0625,11153657205,0.0686646,-0.00500488,0.9245,-0.374939,-0.0612487,-0.123522,-2.36724
11153672181,1,-1,0,-4,-4,-2,0,-1,11153672951,0.125,-0.0625,0.994629,11153672951,1.4375,-0.3125,0.1875,11153672951,0.0686646,-0.00476074,0.924438,-0.375,-0.0608022,-0.123697,-2.36705
11153678970,-3,-1,-1,-1,2,-1,1,-2,11153672951,0.125,-0.0625,0.994629,11153672951,1.4375,-0.3125,0.1875,11153672951,0.0686646,-0.00476074,0.924438,-0.375,-0.0608022,-0.123697,-2.36705
11153678970,-1,3,-3,-4,-4,3,0,0,11153672951,0.125,-0.0625,0.994629,11153672951,1.4375,-0.3125,0.1875,11153672951,0.0686646,-0.00476074,0.924438,-0.375,-0.0608022,-0.123697,-2.36705
11153695376,0,-3,2,2,2,-2,-2,-1,11153672951,0.125,-0.0625,0.994629,11153672951,1.4375,-0.3125,0.1875,11153672951,0.0686646,-0.00476074,0.924438,-0.375,-0.0608022,-0.123697,-2.36705
11153695376,-1,-2,-2,2,-2,-2,0,1,11153696217,0.129395,-0.0693359,0.989746,11153696217,0.375,-0.125,0.25,11153696217,0.0686646,-0.00482178,0.924438,-0.375,-0.0609158,-0.123651,-2.36705
11153697035,1,1,-1,3,-4,2,-1,0,11153696217,0.129395,-0.0693359,0.989746,11153696217,0.375,-0.125,0.25,11153696217,0.0686646,-0.00482178,0.924438,-0.375,-0.0609158,-0.123651,-2.36705
11153697035,-3,-3,-4,-1,-2,-1,0,0,11153696217,0.129395,-0.0693359,0.989746,11153696217,0.375,-0.125,0.25,11153696217,0.0686646,-0.00482178,0.924438,-0.375,-0.0609158,-0.123651,-2.36705
11153709023,-4,-1,-2,3,1,-2,0,2,11153696217,0.129395,-0.0693359,0.989746,11153696217,0.375,-0.125,0.25,11153696217,0.0686646,-0.00482178,0.924438,-0.375,-0.0609158,-0.123651,-2.36705
11153709023,-1,-1,-2,-1,-1,0,-3,0,11153717273,0.127441,-0.0634766,0.992188,11153717273,0.375,-0.3125,0.25,11153717273,0.0687256,-0.00482178,0.924438,-0.375,-0.0609629,-0.123765,-2.36705
11153718068,0,-3,2,-3,1,0,-1,-3,11153717273,0.127441,-0.0634766,0.992188,11153717273,0.375,-0.3125,0.25,11153717273,0.0687256,-0.00482178,0.924438,-0.375,-0.0609629,-0.123765,-2.36705
11153718068,1,-4,-1,-2,-5,-1,-1,-2,11153717273,0.127441,-0.0634766,0.992188,11153717273,0.375,-0.3125,0.25,11153717273,0.0687256,-0.00482178,0.924438,-0.375,-0.0609629,-0.123765,-2.36705
11153732254,1,1,-1,0,-1,2,2,-2,11153717273,0.127441,-0.0634766,0.992188,11153717273,0.375,-0.3125,0.25,11153717273,0.0687256,-0.00482178,0.924438,-0.375,-0.0609629,-0.123765,-2.36705
11153732254,-1,0,-1,1,0,-1,-1,-1,11153733033,0.131836,-0.0668945,0.990723,11153733033,0,-0.4375,0.3125,11153733033,0.0687256,-0.00482178,0.924438,-0.375,-0.0609629,-0.123765,-2.36705
11153739019,-1,-1,-1,-2,8,4,0,2,11153733033,0.131836,-0.0668945,0.990723,11153733033,0,-0.4375,0.3125,11153733033,0.0687256,-0.00482178,0.924438,-0.375,-0.0609629,-0.123765,-2.36705
11153739019,-5,0,2,-3,-1,2,-1,-1,11153733033,0.131836,-0.0668945,0.990723,11153733033,0,-0.4375,0.3125,11153733033,0.0687256,-0.00482178,0.924438,-0.375,-0.0609629,-0.123765,-2.36705
11153755467,-1,1,-2,-3,3,-2,-2,-3,11153733033,0.131836,-0.0668945,0.990723,11153733033,0,-0.4375,0.3125,11153733033,0.0687256,-0.00482178,0.924438,-0.375,-0.0609629,-0.123765,-2.36705
11153755467,-1,-4,2,-4,-3,-1,-3,-2,11153756224,0.123535,-0.0703125,0.990723,11153756224,-0.0625,-0.25,0.1875,11153756224,0.0687256,-0.00482178,0.924438,-0.375,-0.0609629,-0.123765,-2.36705
11153757019,1,0,0,3,1,0,-1,-5,11153756224,0.123535,-0.0703125,0.990723,11153756224,-0.0625,-0.25,0.1875,11153756224,0.0687256,-0.00482178,0.924438,-0.375,-0.0609629,-0.123765,-2.36705
11153757019,-2,2,1,1,-2,-1,0,-1,11153756224,0.123535,-0.0703125,0.990723,11153756224,-0.0625,-0.25,0.1875,11153756224,0.0687256,-0.00482178,0.924438,-0.375,-0.0609629,-0.123765,-2.36705
11153769083,1,2,-2,-4,2,0,-2,-2,11153756224,0.123535,-0.0703125,0.990723,11153756224,-0.0625,-0.25,0.1875,11153756224,0.0687256,-0.00482178,0.924438,-0.375,-0.0609629,-0.123765,-2.36705
11153769083,-3,-1,-7,-1,-2,-1,0,1,11153777305,0.127441,-0.0634766,0.993164,11153777305,-0.4375,-0.125,0.25,11153777305,0.0687866,-0.00482178,0.924438,-0.375,-0.0610099,-0.123878,-2.36705
11153778040,-3,-5,0,-1,-2,-4,-4,1,11153777305,0.127441,-0.0634766,0.993164,11153777305,-0.4375,-0.125,0.25,11153777305,0.0687866,-0.00482178,0.924438,-0.375,-0.0610099,-0.123878,-2.36705
11153778040,-3,-2,-1,-1,-4,-4,-1,0,11153777305,0.127441,-0.0634766,0.993164,11153777305,-0.4375,-0.125,0.25,11153777305,0.0687866,-0.00482178,0.924438,-0.375,-0.0610099,-0.123878,-2.36705
11153792242,-3,-5,-1,1,-3,1,-1,0,11153777305,0.127441,-0.0634766,0.993164,11153777305,-0.4375,-0.125,0.25,11153777305,0.0687866,-0.00482178,0.924438,-0.375,-0.0610099,-0.123878,-2.36705
11153792242,1,-2,-1,-2,-2,-1,-1,-2,11153793069,0.126465,-0.0639648,0.997559,11153793069,0.1875,-0.1875,0.3125,11153793069,0.0687866,-0.00482178,0.924438,-0.375,-0.0610099,-0.123878,-2.36705
11153799080,-2,-2,0,0,-1,3,-1,1,11153793069,0.126465,-0.0639648,0.997559,11153793069,0.1875,-0.1875,0.3125,11153793069,0.0687866,-0.00482178,0.924438,-0.375,-0.0610099,-0.123878,-2.36705
11153799080,1,0,2,1,-1,2,-1,-2,11153793069,0.126465,-0.0639648,0.997559,11153793069,0.1875,-0.1875,0.3125,11153793069,0.0687866,-0.00482178,0.924438,-0.375,-0.0610099,-0.123878,-2.36705
11153815411,-2,-2,-6,0,2,2,-3,1,11153793069,0.126465,-0.0639648,0.997559,11153793069,0.1875,-0.1875,0.3125,11153793069,0.0687866,-0.00482178,0.924438,-0.375,-0.0610099,-0.123878,-2.36705
11153815411,-1,-5,-4,-2,0,-2,-2,1,11153816154,0.122559,-0.0649414,1,11153816154,0.375,-0.1875,0,11153816154,0.0687866,-0.00488281,0.924438,-0.375,-0.0611235,-0.123832,-2.36704
11153816929,-5,-1,-2,-3,-2,0,0,0,11153816154,0.122559,-0.0649414,1,11153816154,0.375,-0.1875,0,11153816154,0.0687866,-0.00488281,0.924438,-0.375,-0.0611235,-0.123832,-2.36704
11153816929,-4,-6,-4,-1,-2,0,-5,1,11153816154,0.122559,-0.0649414,1,11153816154,0.375,-0.1875,0,11153816154,0.0687866,-0.00488281,0.924438,-0.375,-0.0611235,-0.123832,-2.36704
11153829152,-6,-1,-1,0,-2,1,2,-2,11153816154,0.122559,-0.0649414,1,11153816154,0.375,-0.1875,0,11153816154,0.0687866,-0.00488281,0.924438,-0.375,-0.0611235,-0.123832,-2.36704
11153829152,1,-4,-2,2,-2,3,-1,-2,11153837250,0.123535,-0.0639648,0.997559,11153837250,-0.375,-0.25,0.25,11153837250,0.0687866,-0.00488281,0.924438,-0.375,-0.0611235,-0.123832,-2.36704
11153838057,-4,-1,-2,-7,-2,1,-1,2,11153837250,0.123535,-0.0639648,0.997559,11153837250,-0.375,-0.25,0.25,11153837250,0.0687866,-0.00488281,0.924438,-0.375,-0.0611235,-0.123832,-2.36704
11153838057,-1,0,-1,-4,-3,3,-2,0,11153837250,0.123535,-0.0639648,0.997559,11153837250,-0.375,-0.25,0.25,11153837250,0.0687866,-0.00488281,0.924438,-0.375,-0.0611235,-0.123832,-2.36704
11153852246,-2,-1,-3,0,1,1,0,0,11153837250,0.123535,-0.0639648,0.997559,11153837250,-0.375,-0.25,0.25,11153837250,0.0687866,-0.00488281,0.924438,-0.375,-0.0611235,-0.123832,-2.36704
11153852246,-3,0,-1,-1,-4,-4,0,2,11153853012,0.131836,-0.0639648,0.993164,11153853012,-0.8125,-0.1875,0.75,11153853012,0.0687866,-0.00488281,0.924438,-0.375,-0.0611235,-0.123832,-2.36704
11153859034,-1,-1,0,4,1,1,1,-1,11153853012,0.131836,-0.0639648,0.993164,11153853012,-0.8125,-0.1875,0.75,11153853012,0.0687866,-0.00488281,0.924438,-0.375,-0.0611235,-0.123832,-2.36704
11153859034,1,1,-2,0,3,0,1,-2,11153853012,0.131836,-0.0639648,0.993164,11153853012,-0.8125,-0.1875,0.75,11153853012,0.0687866,-0.00488281,0.924438,-0.375,-0.0611235,-0.123832,-2.36704
11153875311,-2,-2,-2,-1,-3,3,-3,-4,11153853012,0.131836,-0.0639648,0.993164,11153853012,-0.8125,-0.1875,0.75,11153853012,0.0687866,-0.00488281,0.924438,-0.375,-0.0611235,-0.123832,-2.36704
11153875311,-4,0,1,-4,0,0,-1,2,11153876160,0.126465,-0.0698242,0.996094,11153876160,-0.8125,-0.125,0.6875,11153876160,0.0687866,-0.00488281,0.924438,-0.375,-0.0611235,-0.123832,-2.36704
11153876947,2,1,-1,-2,-2,2,-1,1,11153876160,0.126465,-0.0698242,0.996094,11153876160,-0.8125,-0.125,0.6875,11153876160,0.0687866,-0.00488281,0.924438,-0.375,-0.0611235,-0.123832,-2.36704
11153876947,2,-1,2,0,0,2,1,-2,11153876160,0.126465,-0.0698242,0.996094,11153876160,-0.8125,-0.125,0.6875,11153876160,0.0687866,-0.00488281,0.924438,-0.375,-0.0611235,-0.123832,-2.36704
11153889080,0,0,0,-1,3,3,-2,1,11153876160,0.126465,-0.0698242,0.996094,11153876160,-0.8125,-0.125,0.6875,11153876160,0.0687866,-0.00488281,0.924438,-0.375,-0.0611235,-0.123832,-2.36704
11153889080,-1,-2,-1,-3,6,2,-2,-5,11153897311,0.126465,-0.0708008,0.996582,11153897311,-0.9375,0.0625,0.375,11153897311,0.0688477,-0.00488281,0.924438,-0.375,-0.0611706,-0.123946,-2.36704
11153898047,0,2,0,2,2,2,0,0,11153897311,0.126465,-0.0708008,0.996582,11153897311,-0.9375,0.0625,0.375,11153897311,0.0688477,-0.00488281,0.924438,-0.375,-0.0611706,-0.123946,-2.36704
11153898047,-1,-1,-3,2,-2,3,-1,1,11153897311,0.126465,-0.0708008,0.996582,11153897311,-0.9375,0.0625,0.375,11153897311,0.0688477,-0.00488281,0.924438,-0.375,-0.0611706,-0.123946,-2.36704
11153912243,2,0,0,2,-1,0,-2,-2,11153897311,0.126465,-0.0708008,0.996582,11153897311,-0.9375,0.0625,0.375,11153897311,0.0688477,-0.00488281,0.924438,-0.375,-0.0611706,-0.123946,-2.36704
11153912243,0,-2,1,-1,-2,8,1,-1,11153913027,0.120605,-0.0742188,1.00293,11153913027,-0.625,0.0625,0.25,11153913027,0.0688477,-0.00494385,0.924438,-0.375,-0.0612842,-0.1239,-2.36703
11153918949,-2,-2,1,0,1,2,-2,-1,11153913027,0.120605,-0.0742188,1.00293,11153913027,-0.625,0.0625,0.25,11153913027,0.0688477,-0.00494385,0.924438,-0.375,-0.0612842,-0.1239,-2.36703
11153918949,-1,0,1,-4,1,-1,-2,-3,11153913027,0.120605,-0.0742188,1.00293,11153913027,-0.625,0.0625,0.25,11153913027,0.0688477,-0.00494385,0.924438,-0.375,-0.0612842,-0.1239,-2.36703
11153935361,2,4,2,2,-2,3,1,2,11153913027,0.120605,-0.0742188,1.00293,11153913027,-0.625,0.0625,0.25,11153913027,0.0688477,-0.00494385,0.924438,-0.375,-0.0612842,-0.1239,-2.36703
11153935361,-2,0,0,2,-5,-1,1,-3,11153936145,0.126465,-0.0722656,0.999023,11153936145,0,-0.0625,0.4375,11153936145,0.0688477,-0.00494385,0.924438,-0.375,-0.0612842,-0.1239,-2.36703
11153936929,-1,1,1,0,1,1,0,1,11153936145,0.126465,-0.0722656,0.999023,11153936145,0,-0.0625,0.4375,11153936145,0.0688477,-0.00494385,0.924438,-0.375,-0.0612842,-0.1239,-2.36703
11153936929,2,0,2,-1,-1,3,1,-2,11153936145,0.126465,-0.0722656,0.999023,11153936145,0,-0.0625,0.4375,11153936145,0.0688477,-0.00494385,0.924438,-0.375,-0.0612842,-0.1239,-2.36703
11153948999,0,-1,0,-2,-4,0,-2,-2,11153936145,0.126465,-0.0722656,0.999023,11153936145,0,-0.0625,0.4375,11153936145,0.0688477,-0.00494385,0.924438,-0.375,-0.0612842,-0.1239,-2.36703
11153948999,-1,0,-4,0,-1,0,-3,-1,11153957268,0.124023,-0.0717773,1.00098,11153957268,0.6875,-0.25,0.4375,11153957268,0.0688477,-0.00500488,0.924438,-0.375,-0.0613977,-0.123854,-2.36703
11153958004,0,-2,-1,1,-7,-3,1,-2,11153957268,0.124023,-0.0717773,1.00098,11153957268,0.6875,-0.25,0.4375,11153957268,0.0688477,-0.00500488,0.924438,-0.375,-0.0613977,-0.123854,-2.36703
11153958004,-1,-2,0,-4,11,-4,-1,-1,11153957268,0.124023,-0.0717773,1.00098,11153957268,0.6875,-0.25,0.4375,11153957268,0.0688477,-0.00500488,0.924438,-0.375,-0.0613977,-0.123854,-2.36703
11153980414,-4,0,-3,-3,-4,2,2,-1,11153957268,0.124023,-0.0717773,1.00098,11153957268,0.6875,-0.25,0.4375,11153957268,0.0688477,-0.00500488,0.924438,-0.375,-0.0613977,-0.123854,-2.36703
11153980414,3,-1,-1,5,3,0,0,2,11153981171,0.124512,-0.0693359,0.994629,11153981171,0.6875,-0.375,0.0625,11153981171,0.0688477,-0.00500488,0.924438,-0.375,-0.0613977,-0.123854,-2.36703
11153981969,0,2,-1,-1,-1,3,-3,-3,11153981171,0.124512,-0.0693359,0.994629,11153981171,0.6875,-0.375,0.0625,11153981171,0.0688477,-0.00500488,0.924438,-0.375,-0.0613977,-0.123854,-2.36703
11153981969,-1,-2,-3,1,-1,2,-2,1,11153981171,0.124512,-0.0693359,0.994629,11153981171,0.6875,-0.375,0.0625,11153981171,0.0688477,-0.00500488,0.924438,-0.375,-0.0613977,-0.123854,-2.36703
11153995464,0,-1,0,0,1,-3,1,0,11153981171,0.124512,-0.0693359,0.994629,11153981171,0.6875,-0.375,0.0625,11153981171,0.0688477,-0.00500488,0.924438,-0.375,-0.0613977,-0.123854,-2.36703
11153995464,0,1,-2,-1,0,0,-1,2,11153996210,0.127441,-0.0654297,1.00537,11153996210,0.5,-0.1875,0.25,11153996210,0.0688477,-0.00500488,0.924438,-0.375,-0.0613977,-0.123854,-2.36703
11153997015,-1,-1,-3,0,-1,-1,0,-3,11153996210,0.127441,-0.0654297,1.00537,11153996210,0.5,-0.1875,0.25,11153996210,0.0688477,-0.00500488,0.924438,-0.375,-0.0613977,-0.123854,-2.36703
11153997015,-1,0,-5,1,-1,2,0,-1,11153996210,0.127441,-0.0654297,1.00537,11153996210,0.5,-0.1875,0.25,11153996210,0.0688477,-0.00500488,0.924438,-0.375,-0.0613977,-0.123854,-2.36703
11154009003,-2,-1,-1,-5,1,1,1,1,11153996210,0.127441,-0.0654297,1.00537,11153996210,0.5,-0.1875,0.25,11153996210,0.0688477,-0.00500488,0.924438,-0.375,-0.0613977,-0.123854,-2.36703
11154009003,-3,-2,-2,0,-4,-5,0,-2,11154017222,0.125,-0.0688477,0.995605,11154017222,0.4375,0.0625,0,11154017222,0.0689087,-0.00506592,0.924438,-0.375,-0.0615584,-0.123921,-2.36702
11154017989,-2,1,-2,-2,1,-1,0,-1,11154017222,0.125,-0.0688477,0.995605,11154017222,0.4375,0.0625,0,11154017222,0.0689087,-0.00506592,0.924438,-0.375,-0.0615584,-0.123921,-2.36702
11154017989,1,-1,-3,-1,-4,0,-1,-3,11154017222,0.125,-0.0688477,0.995605,11154017222,0.4375,0.0625,0,11154017222,0.0689087,-0.00506592,0.924438,-0.375,-0.0615584,-0.123921,-2.36702
11154032321,-1,1,-3,4,4,-3,-2,-2,11154017222,0.125,-0.0688477,0.995605,11154017222,0.4375,0.0625,0,11154017222,0.0689087,-0.00506592,0.924438,-0.375,-0.0615584,-0.123921,-2.36702
11154032321,-1,-5,0,-2,-1,-5,-1,-2,11154033098,0.124512,-0.0708008,0.991211,11154033098,0.6875,-0.0625,-0.0625,11154033098,0.0689087,-0.00506592,0.924438,-0.375,-0.0615584,-0.123921,-2.36702
11154039129,-2,-1,0,-1,-4,3,-1,1,11154033098,0.124512,-0.0708008,0.991211,11154033098,0.6875,-0.0625,-0.0625,11154033098,0.0689087,-0.00506592,0.924438,-0.375,-0.0615584,-0.123921,-2.36702
11154039129,-5,-1,1,0,-3,-2,-1,-1,11154033098,0.124512,-0.0708008,0.991211,11154033098,0.6875,-0.0625,-0.0625,11154033098,0.0689087,-0.00506592,0.924438,-0.375,-0.0615584,-0.123921,-2.36702
11154055446,-2,-1,-1,-4,-4,0,1,-2,11154033098,0.124512,-0.0708008,0.991211,11154033098,0.6875,-0.0625,-0.0625,11154033098,0.0689087,-0.00506592,0.924438,-0.375,-0.0615584,-0.123921,-2.36702
11154055446,-1,0,0,-2,2,3,-1,-1,11154056207,0.126953,-0.0683594,0.995605,11154056207,0.4375,-0.5,-0.125,11154056207,0.0689087,-0.00506592,0.924438,-0.375,-0.0615584,-0.123921,-2.36702
11154057024,-2,-1,-4,-3,-1,-2,-5,-3,11154056207,0.126953,-0.0683594,0.995605,11154056207,0.4375,-0.5,-0.125,11154056207,0.0689087,-0.00506592,0.924438,-0.375,-0.0615584,-0.123921,-2.36702
11154057024,1,0,-2,-3,0,-3,-1,0,11154056207,0.126953,-0.0683594,0.995605,11154056207,0.4375,-0.5,-0.125,11154056207,0.0689087,-0.00506592,0.924438,-0.375,-0.0615584,-0.123921,-2.36702
11154069110,-2,-3,0,-2,-4,3,-1,1,11154056207,0.126953,-0.0683594,0.995605,11154056207,0.4375,-0.5,-0.125,11154056207,0.0689087,-0.00506592,0.924438,-0.375,-0.0615584,-0.123921,-2.36702
11154069110,-3,-1,1,0,0,1,1,0,11154077274,0.132812,-0.0693359,0.99707,11154077274,0,-0.3125,0.125,11154077274,0.0689697,-0.00512695,0.924438,-0.375,-0.0617191,-0.123989,-2.36702
11154078041,2,-1,-1,0,-3,0,-1,-2,11154077274,0.132812,-0.0693359,0.99707,11154077274,0,-0.3125,0.125,11154077274,0.0689697,-0.00512695,0.924438,-0.375,-0.0617191,-0.123989,-2.36702
11154078041,1,0,1,-1,3,0,1,-1,11154077274,0.132812,-0.0693359,0.99707,11154077274,0,-0.3125,0.125,11154077274,0.0689697,-0.00512695,0.924438,-0.375,-0.0617191,-0.123989,-2.36702
11154092191,-1,1,-2,-1,1,-1,-3,-2,11154077274,0.132812,-0.0693359,0.99707,11154077274,0,-0.3125,0.125,11154077274,0.0689697,-0.00512695,0.924438,-0.375,-0.0617191,-0.123989,-2.36702
11154092191,1,-1,-3,-2,-4,1,0,0,11154093010,0.126465,-0.0664062,1.00049,11154093010,-0.1875,-0.1875,0.0625,11154093010,0.0689697,-0.00512695,0.924438,-0.375,-0.0617191,-0.123989,-2.36702
11154099066,-1,0,-3,-3,1,-4,0,-2,11154093010,0.126465,-0.0664062,1.00049,11154093010,-0.1875,-0.1875,0.0625,11154093010,0.0689697,-0.00512695,0.924438,-0.375,-0.0617191,-0.123989,-2.36702
11154099066,0,-2,-1,2,1,0,0,1,11154093010,0.126465,-0.0664062,1.00049,11154093010,-0.1875,-0.1875,0.0625,11154093010,0.0689697,-0.00512695,0.924438,-0.375,-0.0617191,-0.123989,-2.36702
11154115362,-5,-3,-1,1,-4,-3,-1,-3,11154093010,0.126465,-0.0664062,1.00049,11154093010,-0.1875,-0.1875,0.0625,11154093010,0.0689697,-0.00512695,0.924438,-0.375,-0.0617191,-0.123989,-2.36702
11154115362,-2,2,2,3,2,7,-2,0,11154116269,0.124512,-0.0717773,0.999512,11154116269,0.25,-0.125,0.0625,11154116269,0.0689697,-0.00512695,0.924438,-0.375,-0.0617191,-0.123989,-2.36702
11154117001,-1,-3,-2,-1,-2,-1,-1,0,11154116269,0.124512,-0.0717773,0.999512,11154116269,0.25,-0.125,0.0625,11154116269,0.0689697,-0.00512695,0.924438,-0.375,-0.0617191,-0.123989,-2.36702
11154117001,1,-3,1,-4,2,1,0,-2,11154116269,0.124512,-0.0717773,0.999512,11154116269,0.25,-0.125,0.0625,11154116269,0.0689697,-0.00512695,0.924438,-0.375,-0.0617191,-0.123989,-2.36702
11154137999,1,-1,-2,0,5,2,-2,0,11154116269,0.124512,-0.0717773,0.999512,11154116269,0.25,-0.125,0.0625,11154116269,0.0689697,-0.00512695,0.924438,-0.375,-0.0617191,-0.123989,-2.36702
11154137999,-1,-2,-2,-1,-1,-7,-3,-1,11154138738,0.125977,-0.0664062,0.988281,11154138738,0.125,-0.1875,0.0625,11154138738,0.0689697,-0.00512695,0.924438,-0.375,-0.0617191,-0.123989,-2.36702
11154139561,-3,-3,0,-1,1,-1,1,-1,11154138738,0.125977,-0.0664062,0.988281,11154138738,0.125,-0.1875,0.0625,11154138738,0.0689697,-0.00512695,0.924438,-0.375,-0.0617191,-0.123989,-2.36702
11154139561,1,1,-3,3,-3,4,0,1,11154138738,0.125977,-0.0664062,0.988281,11154138738,0.125,-0.1875,0.0625,11154138738,0.0689697,-0.00512695,0.924438,-0.375,-0.0617191,-0.123989,-2.36702
11154152755,0,-1,-3,-2,0,0,-2,0,11154138738,0.125977,-0.0664062,0.988281,11154138738,0.125,-0.1875,0.0625,11154138738,0.0689697,-0.00512695,0.924438,-0.375,-0.0617191,-0.123989,-2.36702
11154152755,-4,0,-1,-2,0,-4,-1,1,11154153543,0.128418,-0.0703125,0.996582,11154153543,0.5,-0.0625,-0.25,11154153543,0.0690308,-0.00518799,0.924438,-0.375,-0.0618798,-0.124056,-2.36701
11154158986,1,3,-1,1,-1,2,-2,-1,11154153543,0.128418,-0.0703125,0.996582,11154153543,0.5,-0.0625,-0.25,11154153543,0.0690308,-0.00518799,0.924438,-0.375,-0.0618798,-0.124056,-2.36701
11154158986,-6,-2,-2,-4,-4,0,-2,0,11154153543,0.128418,-0.0703125,0.996582,11154153543,0.5,-0.0625,-0.25,11154153543,0.0690308,-0.00518799,0.924438,-0.375,-0.0618798,-0.124056,-2.36701
11154175360,2,-1,-4,-3,3,-1,3,0,11154153543,0.128418,-0.0703125,0.996582,11154153543,0.5,-0.0625,-0.25,11154153543,0.0690308,-0.00518799,0.924438,-0.375,-0.0618798,-0.124056,-2.36701
11154175360,-1,0,-1,-3,-1,1,0,0,11154176234,0.120605,-0.0678711,0.994629,11154176234,0.5,0.1875,-0.0625,11154176234,0.0689697,-0.00518799,0.924438,-0.375,-0.0618327,-0.123943,-2.36701
11154176987,-4,-2,-3,0,1,1,-4,-2,11154176234,0.120605,-0.0678711,0.994629,11154176234,0.5,0.1875,-0.0625,11154176234,0.0689697,-0.00518799,0.924438,-0.375,-0.0618327,-0.123943,-2.36701
11154176987,-3,-3,-4,1,-2,3,0,0,11154176234,0.120605,-0.0678711,0.994629,11154176234,0.5,0.1875,-0.0625,11154176234,0.0689697,-0.00518799,0.924438,-0.375,-0.0618327,-0.123943,-2.36701
11154189088,0,-2,2,-3,-1,0,-2,-1,11154176234,0.120605,-0.0678711,0.994629,11154176234,0.5,0.1875,-0.0625,11154176234,0.0689697,-0.00518799,0.924438,-0.375,-0.0618327,-0.123943,-2.36701
11154189088,-5,-2,-1,-3,-5,-2,-2,-2,11154197304,0.123535,-0.0664062,0.995605,11154197304,-0.125,0.25,0.1875,11154197304,0.0690308,-0.00518799,0.924438,-0.375,-0.0618798,-0.124056,-2.36701
11154198013,-1,-5,-1,0,-3,-3,0,1,11154197304,0.123535,-0.0664062,0.995605,11154197304,-0.125,0.25,0.1875,11154197304,0.0690308,-0.00518799,0.924438,-0.375,-0.0618798,-0.124056,-2.36701
11154198013,0,-1,1,-2,0,1,0,-2,11154197304,0.123535,-0.0664062,0.995605,11154197304,-0.125,0.25,0.1875,11154197304,0.0690308,-0.00518799,0.924438,-0.375,-0.0618798,-0.124056,-2.36701
11154212264,-5,-2,1,-5,-8,-3,0,-1,11154197304,0.123535,-0.0664062,0.995605,11154197304,-0.125,0.25,0.1875,11154197304,0.0690308,-0.00518799,0.924438,-0.375,-0.0618798,-0.124056,-2.36701
11154212264,1,-3,-1,0,2,0,0,-3,11154213035,0.125977,-0.0664062,1.00146,11154213035,-0.5,-0.125,0,11154213035,0.0690308,-0.00518799,0.924438,-0.375,-0.0618798,-0.124056,-2.36701
11154219132,-2,-4,-2,-6,4,1,-2,2,11154213035,0.125977,-0.0664062,1.00146,11154213035,-0.5,-0.125,0,11154213035,0.0690308,-0.00518799,0.924438,-0.375,-0.0618798,-0.124056,-2.36701
11154219132,-1,-1,-2,2,-1,-1,-1,2,11154213035,0.125977,-0.0664062,1.00146,11154213035,-0.5,-0.125,0,11154213035,0.0690308,-0.00518799,0.924438,-0.375,-0.0618798,-0.124056,-2.36701
11154235395,-1,1,2,2,1,2,-1,-2,11154213035,0.125977,-0.0664062,1.00146,11154213035,-0.5,-0.125,0,11154213035,0.0690308,-0.00518799,0.924438,-0.375,-0.0618798,-0.124056,-2.36701
11154235395,1,2,0,-1,-1,2,1,1,11154236179,0.125977,-0.0698242,0.993652,11154236179,-0.25,-0.5,0,11154236179,0.0690308,-0.00524902,0.924438,-0.375,-0.0619933,-0.12401,-2.36701
11154236949,-2,-3,-2,0,1,-5,-2,1,11154236179,0.125977,-0.0698242,0.993652,11154236179,-0.25,-0.5,0,11154236179,0.0690308,-0.00524902,0.924438,-0.375,-0.0619933,-0.12401,-2.36701
11154236949,-3,-2,-1,-2,-1,0,-4,-1,11154236179,0.125977,-0.0698242,0.993652,11154236179,-0.25,-0.5,0,11154236179,0.0690308,-0.00524902,0.924438,-0.375,-0.0619933,-0.12401,-2.36701
11154249065,-3,-1,3,0,-2,2,3,-2,11154236179,0.125977,-0.0698242,0.993652,11154236179,-0.25,-0.5,0,11154236179,0.0690308,-0.00524902,0.924438,-0.375,-0.0619933,-0.12401,-2.36701
11154249065,-2,-3,-3,1,0,0,-3,1,11154257227,0.126953,-0.0708008,1.00342,11154257227,-0.5,-0.1875,-0.0625,11154257227,0.0690308,-0.00524902,0.924438,-0.375,-0.0619933,-0.12401,-2.36701
11154258032,2,2,-1,-4,-1,-1,1,0,11154257227,0.126953,-0.0708008,1.00342,11154257227,-0.5,-0.1875,-0.0625,11154257227,0.0690308,-0.00524902,0.924438,-0.375,-0.0619933,-0.12401,-2.36701
11154258032,-2,-1,0,-3,3,-2,-2,-2,11154257227,0.126953,-0.0708008,1.00342,11154257227,-0.5,-0.1875,-0.0625,11154257227,0.0690308,-0.00524902,0.924438,-0.375,-0.0619933,-0.12401,-2.36701
11154272190,1,-2,-1,-1,-5,2,0,0,11154257227,0.126953,-0.0708008,1.00342,11154257227,-0.5,-0.1875,-0.0625,11154257227,0.0690308,-0.00524902,0.924438,-0.375,-0.0619933,-0.12401,-2.36701
11154272190,-1,-3,-5,1,1,4,0,-2,11154272993,0.125,-0.0722656,1.00537,11154272993,-0.3125,-0.3125,0.125,11154272993,0.0690308,-0.00524902,0.924438,-0.375,-0.0619933,-0.12401,-2.36701
11154278984,2,1,5,3,3,2,3,-2,11154272993,0.125,-0.0722656,1.00537,11154272993,-0.3125,-0.3125,0.125,11154272993,0.0690308,-0.00524902,0.924438,-0.375,-0.0619933,-0.12401,-2.36701
11154278984,-2,-2,-2,0,-6,-6,-1,0,11154272993,0.125,-0.0722656,1.00537,11154272993,-0.3125,-0.3125,0.125,11154272993,0.0690308,-0.00524902,0.924438,-0.375,-0.0619933,-0.12401,-2.36701
11154294702,2,0,0,1,-3,0,-2,-2,11154272993,0.125,-0.0722656,1.00537,11154272993,-0.3125,-0.3125,0.125,11154272993,0.0690308,-0.00524902,0.924438,-0.375,-0.0619933,-0.12401,-2.36701
11154294702,-2,2,-1,-9,-4,1,0,-2,11154295488,0.124023,-0.0683594,0.999512,11154295488,0.125,-0.4375,0.4375,11154295488,0.0690308,-0.00531006,0.924438,-0.375,-0.0621069,-0.123964,-2.367
11154301482,-3,-2,-4,-2,-4,2,-1,-1,11154295488,0.124023,-0.0683594,0.999512,11154295488,0.125,-0.4375,0.4375,11154295488,0.0690308,-0.00531006,0.924438,-0.375,-0.0621069,-0.123964,-2.367
11154301482,1,2,-1,1,-2,0,0,0,11154295488,0.124023,-0.0683594,0.999512,11154295488,0.125,-0.4375,0.4375,11154295488,0.0690308,-0.00531006,0.924438,-0.375,-0.0621069,-0.123964,-2.367
11154317879,-1,-3,1,-2,0,3,-1,-1,11154295488,0.124023,-0.0683594,0.999512,11154295488,0.125,-0.4375,0.4375,11154295488,0.0690308,-0.00531006,0.924438,-0.375,-0.0621069,-0.123964,-2.367
11154317879,2,-1,2,-4,-1,-7,0,1,11154318632,0.127441,-0.0727539,1.00146,11154318632,0.75,-0.4375,0.1875,11154318632,0.0690918,-0.00531006,0.924438,-0.375,-0.062154,-0.124078,-2.367
11154319437,-4,-2,-3,4,-4,1,-1,-3,11154318632,0.127441,-0.0727539,1.00146,11154318632,0.75,-0.4375,0.1875,11154318632,0.0690918,-0.00531006,0.924438,-0.375,-0.062154,-0.124078,-2.367
11154319437,-4,-1,-1,0,2,2,0,-4,11154318632,0.127441,-0.0727539,1.00146,11154318632,0.75,-0.4375,0.1875,11154318632,0.0690918,-0.00531006,0.924438,-0.375,-0.062154,-0.124078,-2.367
11154332183,-1,0,-2,0,3,-1,2,2,11154318632,0.127441,-0.0727539,1.00146,11154318632,0.75,-0.4375,0.1875,11154318632,0.0690918,-0.00531006,0.924438,-0.375,-0.062154,-0.124078,-2.367
11154332183,-1,1,-1,4,-3,4,-1,-1,11154332975,0.12793,-0.0693359,1.00049,11154332975,1.375,-0.4375,0.125,11154332975,0.0690918,-0.00512695,0.924377,-0.375061,-0.0618211,-0.124207,-2.36681
11154339005,-2,-1,-3,-3,0,-2,-2,0,11154332975,0.12793,-0.0693359,1.00049,11154332975,1.375,-0.4375,0.125,11154332975,0.0690918,-0.00512695,0.924377,-0.375061,-0.0618211,-0.124207,-2.36681
11154339005,0,-2,1,-6,-3,-2,0,1,11154332975,0.12793,-0.0693359,1.00049,11154332975,1.375,-0.4375,0.125,11154332975,0.0690918,-0.00512695,0.924377,-0.375061,-0.0618211,-0.124207,-2.36681
11154354722,-1,1,-2,-3,0,-2,-2,0,11154332975,0.12793,-0.0693359,1.00049,11154332975,1.375,-0.4375,0.125,11154332975,0.0690918,-0.00512695,0.924377,-0.375061,-0.0618211,-0.124207,-2.36681
11154354722,-2,0,-3,1,0,-1,0,-1,11154355517,0.131348,-0.0644531,0.993652,11154355517,0.6875,-0.375,0.0625,11154355517,0.0691528,-0.00512695,0.924377,-0.375061,-0.0618682,-0.124321,-2.36681
11154361523,1,-3,-2,-3,-4,-1,0,-3,11154355517,0.131348,-0.0644531,0.993652,11154355517,0.6875,-0.375,0.0625,11154355517,0.0691528,-0.00512695,0.924377,-0.375061,-0.0618682,-0.124321,-2.36681
11154361523,0,2,1,0,0,0,-1,-5,11154355517,0.131348,-0.0644531,0.993652,11154355517,0.6875,-0.375,0.0625,11154355517,0.0691528,-0.00512695,0.924377,-0.375061,-0.0618682,-0.124321,-2.36681
11154377834,-2,-4,-2,3,0,0,-3,-1,11154355517,0.131348,-0.0644531,0.993652,11154355517,0.6875,-0.375,0.0625,11154355517,0.0691528,-0.00512695,0.924377,-0.375061,-0.0618682,-0.124321,-2.36681
11154377834,-2,1,-2,-5,-2,-2,0,-3,11154378631,0.130859,-0.0649414,0.995117,11154378631,-0.25,-0.25,0.25,11154378631,0.0691528,-0.00512695,0.924377,-0.375061,-0.0618682,-0.124321,-2.36681
11154379440,1,3,0,-4,-2,0,-3,-1,11154378631,0.130859,-0.0649414,0.995117,11154378631,-0.25,-0.25,0.25,11154378631,0.0691528,-0.00512695,0.924377,-0.375061,-0.0618682,-0.124321,-2.36681
11154379440,-1,-3,-3,0,-3,-1,-2,1,11154378631,0.130859,-0.0649414,0.995117,11154378631,-0.25,-0.25,0.25,11154378631,0.0691528,-0.00512695,0.924377,-0.375061,-0.0618682,-0.124321,-2.36681
11154392194,-5,0,2,-2,0,-3,-1,3,11154378631,0.130859,-0.0649414,0.995117,11154378631,-0.25,-0.25,0.25,11154378631,0.0691528,-0.00512695,0.924377,-0.375061,-0.0618682,-0.124321,-2.36681
11154392194,0,-3,1,0,2,1,1,-2,11154393020,0.128418,-0.0708008,1.00195,11154393020,-0.875,-0.125,0.375,11154393020,0.0691528,-0.00512695,0.924377,-0.375061,-0.0618682,-0.124321,-2.36681
11154399002,-2,-1,0,-3,-1,-2,0,-3,11154393020,0.128418,-0.0708008,1.00195,11154393020,-0.875,-0.125,0.375,11154393020,0.0691528,-0.00512695,0.924377,-0.375061,-0.0618682,-0.124321,-2.36681
11154399002,-2,-1,-3,-4,0,2,0,-3,11154393020,0.128418,-0.0708008,1.00195,11154393020,-0.875,-0.125,0.375,11154393020,0.0691528,-0.00512695,0.924377,-0.375061,-0.0618682,-0.124321,-2.36681
11154414835,1,0,-2,-1,0,0,-2,-1,11154393020,0.128418,-0.0708008,1.00195,11154393020,-0.875,-0.125,0.375,11154393020,0.0691528,-0.00512695,0.924377,-0.375061,-0.0618682,-0.124321,-2.36681
11154414835,-1,-3,-2,-1,0,-4,-3,3,11154415552,0.129395,-0.0722656,0.995117,11154415552,-0.3125,-0.3125,0.1875,11154415552,0.0692139,-0.00518799,0.924377,-0.375061,-0.0620289,-0.124388,-2.3668
11154421531,-2,-4,-1,-2,-3,1,0,5,11154415552,0.129395,-0.0722656,0.995117,11154415552,-0.3125,-0.3125,0.1875,11154415552,0.0692139,-0.00518799,0.924377,-0.375061,-0.0620289,-0.124388,-2.3668
11154421531,0,1,-3,-3,1,4,1,-2,11154415552,0.129395,-0.0722656,0.995117,11154415552,-0.3125,-0.3125,0.1875,11154415552,0.0692139,-0.00518799,0.924377,-0.375061,-0.0620289,-0.124388,-2.3668
11154438022,-1,-2,-2,-3,-7,0,0,-6,11154415552,0.129395,-0.0722656,0.995117,11154415552,-0.3125,-0.3125,0.1875,11154415552,0.0692139,-0.00518799,0.924377,-0.375061,-0.0620289,-0.124388,-2.3668
11154438022,-4,-1,-3,-2,-3,1,-3,0,11154438723,0.125977,-0.0668945,1.00146,11154438723,0.375,-0.1875,-0.0625,11154438723,0.0692139,-0.00518799,0.924377,-0.375061,-0.0620289,-0.124388,-2.3668
11154439503,-1,0,0,4,-1,0,-3,-2,11154438723,0.125977,-0.0668945,1.00146,11154438723,0.375,-0.1875,-0.0625,11154438723,0.0692139,-0.00518799,0.924377,-0.375061,-0.0620289,-0.124388,-2.3668
11154439503,0,-1,1,0,0,2,2,3,11154438723,0.125977,-0.0668945,1.00146,11154438723,0.375,-0.1875,-0.0625,11154438723,0.0692139,-0.00518799,0.924377,-0.375061,-0.0620289,-0.124388,-2.3668
11154452258,1,1,-1,3,4,2,0,0,11154438723,0.125977,-0.0668945,1.00146,11154438723,0.375,-0.1875,-0.0625,11154438723,0.0692139,-0.00518799,0.924377,-0.375061,-0.0620289,-0.124388,-2.3668
11154452258,0,-3,1,-2,-5,-2,-2,-2,11154453090,0.125977,-0.0712891,1,11154453090,-0.875,-0.1875,0,11154453090,0.0692139,-0.00518799,0.924377,-0.375061,-0.0620289,-0.124388,-2.3668
11154458988,-1,0,-1,-4,-4,-2,-2,-3,11154453090,0.125977,-0.0712891,1,11154453090,-0.875,-0.1875,0,11154453090,0.0692139,-0.00518799,0.924377,-0.375061,-0.0620289,-0.124388,-2.3668
11154458988,-2,-3,0,2,0,-3,-2,1,11154453090,0.125977,-0.0712891,1,11154453090,-0.875,-0.1875,0,11154453090,0.0692139,-0.00518799,0.924377,-0.375061,-0.0620289,-0.124388,-2.3668
11154474734,0,-3,-2,-4,-1,-4,0,0,11154453090,0.125977,-0.0712891,1,11154453090,-0.875,-0.1875,0,11154453090,0.0692139,-0.00518799,0.924377,-0.375061,-0.0620289,-0.124388,-2.3668
11154474734,-2,-3,1,2,1,1,-3,2,11154475518,0.128906,-0.0776367,1.00244,11154475518,-0.875,0,0.25,11154475518,0.0692139,-0.00524902,0.924377,-0.375061,-0.0621425,-0.124342,-2.3668
11154481558,-4,-4,-1,5,-4,0,1,0,11154475518,0.128906,-0.0776367,1.00244,11154475518,-0.875,0,0.25,11154475518,0.0692139,-0.00524902,0.924377,-0.375061,-0.0621425,-0.124342,-2.3668
11154481558,-1,0,-1,1,0,-5,-4,-2,11154475518,0.128906,-0.0776367,1.00244,11154475518,-0.875,0,0.25,11154475518,0.0692139,-0.00524902,0.924377,-0.375061,-0.0621425,-0.124342,-2.3668
11154497908,-1,2,-2,-2,-1,6,2,-4,11154475518,0.128906,-0.0776367,1.00244,11154475518,-0.875,0,0.25,11154475518,0.0692139,-0.00524902,0.924377,-0.375061,-0.0621425,-0.124342,-2.3668
11154497908,1,-1,-2,-2,-3,-1,2,-1,11154498655,0.124512,-0.0786133,1.00439,11154498655,1,0.0625,-0.1875,11154498655,0.0692139,-0.00524902,0.924377,-0.375061,-0.0621425,-0.124342,-2.3668
11154499464,1,-1,0,0,4,3,0,0,11154498655,0.124512,-0.0786133,1.00439,11154498655,1,0.0625,-0.1875,11154498655,0.0692139,-0.00524902,0.924377,-0.375061,-0.0621425,-0.124342,-2.3668
11154499464,-1,-2,-3,0,1,-4,-1,0,11154498655,0.124512,-0.0786133,1.00439,11154498655,1,0.0625,-0.1875,11154498655,0.0692139,-0.00524902,0.924377,-0.375061,-0.0621425,-0.124342,-2.3668
11154512323,0,-2,3,2,-4,0,-2,1,11154498655,0.124512,-0.0786133,1.00439,11154498655,1,0.0625,-0.1875,11154498655,0.0692139,-0.00524902,0.924377,-0.375061,-0.0621425,-0.124342,-2.3668
11154512323,-1,1,-2,0,0,-1,1,0,11154513102,0.125,-0.0737305,1.00244,11154513102,3.125,-0.1875,-0.875,11154513102,0.0690918,-0.00488281,0.924438,-0.374939,-0.0613504,-0.124401,-2.36712
11154519122,0,-3,-2,-2,1,-1,-2,-1,11154513102,0.125,-0.0737305,1.00244,11154513102,3.125,-0.1875,-0.875,11154513102,0.0690918,-0.00488281,0.924438,-0.374939,-0.0613504,-0.124401,-2.36712
11154519122,-1,-1,0,2,-3,1,1,-2,11154513102,0.125,-0.0737305,1.00244,11154513102,3.125,-0.1875,-0.875,11154513102,0.0690918,-0.00488281,0.924438,-0.374939,-0.0613504,-0.124401,-2.36712
11154534848,-1,1,-2,-2,-1,3,-1,-1,11154513102,0.125,-0.0737305,1.00244,11154513102,3.125,-0.1875,-0.875,11154513102,0.0690918,-0.00488281,0.924438,-0.374939,-0.0613504,-0.124401,-2.36712
11154534848,-3,-2,2,-1,0,0,-2,-3,11154535673,0.128906,-0.0551758,0.986816,11154535673,3.25,-0.375,-0.125,11154535673,0.0689697,-0.00421143,0.924438,-0.374939,-0.0600069,-0.124681,-2.36718
11154541527,-1,-4,-3,-3,-2,-3,2,2,11154535673,0.128906,-0.0551758,0.986816,11154535673,3.25,-0.375,-0.125,11154535673,0.0689697,-0.00421143,0.924438,-0.374939,-0.0600069,-0.124681,-2.36718
11154541527,-2,1,-1,-1,-2,-3,-2,-1,11154535673,0.128906,-0.0551758,0.986816,11154535673,3.25,-0.375,-0.125,11154535673,0.0689697,-0.00421143,0.924438,-0.374939,-0.0600069,-0.124681,-2.36718
11154557887,2,2,2,-2,-3,0,1,0,11154535673,0.128906,-0.0551758,0.986816,11154535673,3.25,-0.375,-0.125,11154535673,0.0689697,-0.00421143,0.924438,-0.374939,-0.0600069,-0.124681,-2.36718
11154557887,-2,1,-2,-2,-2,10,-1,-3,11154558680,0.130371,-0.0581055,0.995605,11154558680,-0.0625,-0.125,1.125,11154558680,0.0690308,-0.00421143,0.924377,-0.375122,-0.0600788,-0.124785,-2.36681
11154559511,-1,-2,-2,-1,-1,-4,-1,0,11154558680,0.130371,-0.0581055,0.995605,11154558680,-0.0625,-0.125,1.125,11154558680,0.0690308,-0.00421143,0.924377,-0.375122,-0.0600788,-0.124785,-2.36681
11154559511,1,-6,0,-7,-1,-1,-1,-1,11154558680,0.130371,-0.0581055,0.995605,11154558680,-0.0625,-0.125,1.125,11154558680,0.0690308,-0.00421143,0.924377,-0.375122,-0.0600788,-0.124785,-2.36681
11154572283,-4,-3,-4,-3,2,-1,-2,0,11154558680,0.130371,-0.0581055,0.995605,11154558680,-0.0625,-0.125,1.125,11154558680,0.0690308,-0.00421143,0.924377,-0.375122,-0.0600788,-0.124785,-2.36681
11154572283,0,-3,-1,4,1,-3,-3,4,11154573032,0.132324,-0.0649414,0.993164,11154573032,-2.0625,0.375,0.875,11154573032,0.0692139,-0.00457764,0.924316,-0.375244,-0.060918,-0.12484,-2.36649
11154579079,-1,3,-4,2,-1,1,1,-2,11154573032,0.132324,-0.0649414,0.993164,11154573032,-2.0625,0.375,0.875,11154573032,0.0692139,-0.00457764,0.924316,-0.375244,-0.060918,-0.12484,-2.36649
11154579079,-1,1,0,0,-2,-1,-1,-1,11154573032,0.132324,-0.0649414,0.993164,11154573032,-2.0625,0.375,0.875,11154573032,0.0692139,-0.00457764,0.924316,-0.375244,-0.060918,-0.12484,-2.36649
11154594762,1,-3,-3,1,0,-4,-1,-2,11154573032,0.132324,-0.0649414,0.993164,11154573032,-2.0625,0.375,0.875,11154573032,0.0692139,-0.00457764,0.924316,-0.375244,-0.060918,-0.12484,-2.36649
11154594762,0,-1,-4,-5,1,-5,2,-2,11154595528,0.125488,-0.0678711,0.997559,11154595528,-1.6875,0.5,0.5625,11154595528,0.0692749,-0.00494385,0.924255,-0.375366,-0.061663,-0.124667,-2.36617
11154609041,-3,-2,-1,0,-2,0,-2,-2,11154595528,0.125488,-0.0678711,0.997559,11154595528,-1.6875,0.5,0.5625,11154595528,0.0692749,-0.00494385,0.924255,-0.375366,-0.061663,-0.124667,-2.36617
11154609041,-1,1,-4,-3,-2,-4,1,2,11154595528,0.125488,-0.0678711,0.997559,11154595528,-1.6875,0.5,0.5625,11154595528,0.0692749,-0.00494385,0.924255,-0.375366,-0.061663,-0.124667,-2.36617
11154617866,-1,0,1,0,1,1,-3,-2,11154595528,0.125488,-0.0678711,0.997559,11154595528,-1.6875,0.5,0.5625,11154595528,0.0692749,-0.00494385,0.924255,-0.375366,-0.061663,-0.124667,-2.36617
11154617866,-1,-2,-1,-1,3,-3,1,1,11154618671,0.125977,-0.0810547,1.00049,11154618671,-0.4375,-0.1875,0.25,11154618671,0.0692749,-0.00500488,0.924255,-0.375366,-0.0617766,-0.12462,-2.36616
11154619496,-3,-2,-1,0,1,-1,1,-2,11154618671,0.125977,-0.0810547,1.00049,11154618671,-0.4375,-0.1875,0.25,11154618671,0.0692749,-0.00500488,0.924255,-0.375366,-0.0617766,-0.12462,-2.36616
11154619496,-1,-4,-4,-1,0,1,-2,-2,11154618671,0.125977,-0.0810547,1.00049,11154618671,-0.4375,-0.1875,0.25,11154618671,0.0692749,-0.00500488,0.924255,-0.375366,-0.0617766,-0.12462,-2.36616
11154632184,0,4,0,4,0,-2,-1,2,11154618671,0.125977,-0.0810547,1.00049,11154618671,-0.4375,-0.1875,0.25,11154618671,0.0692749,-0.00500488,0.924255,-0.375366,-0.0617766,-0.12462,-2.36616
11154632184,0,-3,1,3,-3,3,-4,-2,11154633010,0.130859,-0.0732422,0.995605,11154633010,0.5,-0.25,0.0625,11154633010,0.0692749,-0.00500488,0.924255,-0.375366,-0.0617766,-0.12462,-2.36616
11154638994,0,0,-2,1,-2,-1,-3,1,11154633010,0.130859,-0.0732422,0.995605,11154633010,0.5,-0.25,0.0625,11154633010,0.0692749,-0.00500488,0.924255,-0.375366,-0.0617766,-0.12462,-2.36616
11154638994,-2,-3,0,-1,0,1,-1,0,11154633010,0.130859,-0.0732422,0.995605,11154633010,0.5,-0.25,0.0625,11154633010,0.0692749,-0.00500488,0.924255,-0.375366,-0.0617766,-0.12462,-2.36616
11154654768,1,-1,-3,3,1,1,1,-2,11154633010,0.130859,-0.0732422,0.995605,11154633010,0.5,-0.25,0.0625,11154633010,0.0692749,-0.00500488,0.924255,-0.375366,-0.0617766,-0.12462,-2.36616
11154654768,0,1,-2,5,-2,1,-3,1,11154655531,0.116211,-0.0761719,0.994141,11154655531,0.1875,0.5,0.3125,11154655531,0.0692749,-0.00506592,0.924255,-0.375366,-0.0618901,-0.124574,-2.36616
11154661539,0,0,0,-1,-2,1,-4,0,11154655531,0.116211,-0.0761719,0.994141,11154655531,0.1875,0.5,0.3125,11154655531,0.0692749,-0.00506592,0.924255,-0.375366,-0.0618901,-0.124574,-2.36616
11154661539,1,2,-2,3,2,0,0,-1,11154655531,0.116211,-0.0761719,0.994141,11154655531,0.1875,0.5,0.3125,11154655531,0.0692749,-0.00506592,0.924255,-0.375366,-0.0618901,-0.124574,-2.36616
11154677885,-2,-3,0,1,-2,-3,-2,2,11154655531,0.116211,-0.0761719,0.994141,11154655531,0.1875,0.5,0.3125,11154655531,0.0692749,-0.00506592,0.924255,-0.375366,-0.0618901,-0.124574,-2.36616
11154677885,0,1,4,-5,1,-4,-2,-2,11154678656,0.117188,-0.0756836,0.991211,11154678656,-0.5,1.25,-0.125,11154678656,0.0690918,-0.00543213,0.924255,-0.375366,-0.0624301,-0.123956,-2.36613
11154679471,3,1,4,-3,1,2,-6,-1,11154678656,0.117188,-0.0756836,0.991211,11154678656,-0.5,1.25,-0.125,11154678656,0.0690918,-0.00543213,0.924255,-0.375366,-0.0624301,-0.123956,-2.36613
11154679471,-5,1,-2,-3,0,-2,1,-3,11154678656,0.117188,-0.0756836,0.991211,11154678656,-0.5,1.25,-0.125,11154678656,0.0690918,-0.00543213,0.924255,-0.375366,-0.0624301,-0.123956,-2.36613
11154692209,-1,-3,-3,-3,0,6,1,-1,11154678656,0.117188,-0.0756836,0.991211,11154678656,-0.5,1.25,-0.125,11154678656,0.0690918,-0.00543213,0.924255,-0.375366,-0.0624301,-0.123956,-2.36613
11154692209,1,0,-2,-1,0,-3,1,-2,11154692989,0.121094,-0.0766602,0.989746,11154692989,-0.8125,1.1875,-0.1875,11154692989,0.0690308,-0.00579834,0.924255,-0.375305,-0.0630558,-0.123566,-2.36618
11154698971,-4,-2,0,-1,-4,-2,1,1,11154692989,0.121094,-0.0766602,0.989746,11154692989,-0.8125,1.1875,-0.1875,11154692989,0.0690308,-0.00579834,0.924255,-0.375305,-0.0630558,-0.123566,-2.36618
11154698971,0,1,0,-1,-1,2,-1,-3,11154692989,0.121094,-0.0766602,0.989746,11154692989,-0.8125,1.1875,-0.1875,11154692989,0.0690308,-0.00579834,0.924255,-0.375305,-0.0630558,-0.123566,-2.36618
11154714745,-1,0,0,-1,-5,0,-1,-1,11154692989,0.121094,-0.0766602,0.989746,11154692989,-0.8125,1.1875,-0.1875,11154692989,0.0690308,-0.00579834,0.924255,-0.375305,-0.0630558,-0.123566,-2.36618
11154714745,-2,0,0,-3,2,3,-2,-1,11154715504,0.119629,-0.081543,0.991211,11154715504,0.125,0.3125,-0.375,11154715504,0.0690308,-0.00585938,0.924255,-0.375305,-0.0631693,-0.12352,-2.36617
11154721560,1,0,-5,0,-3,-3,1,0,11154715504,0.119629,-0.081543,0.991211,11154715504,0.125,0.3125,-0.375,11154715504,0.0690308,-0.00585938,0.924255,-0.375305,-0.0631693,-0.12352,-2.36617
11154721560,-2,-3,2,-1,-6,2,-3,1,11154715504,0.119629,-0.081543,0.991211,11154715504,0.125,0.3125,-0.375,11154715504,0.0690308,-0.00585938,0.924255,-0.375305,-0.0631693,-0.12352,-2.36617
11154737990,0,0,-3,-5,-1,-3,-1,-3,11154715504,0.119629,-0.081543,0.991211,11154715504,0.125,0.3125,-0.375,11154715504,0.0690308,-0.00585938,0.924255,-0.375305,-0.0631693,-0.12352,-2.36617
11154737990,-1,-3,0,-1,-7,-4,0,-1,11154738763,0.123535,-0.0766602,0.996094,11154738763,0.8125,-0.625,0,11154738763,0.0690308,-0.00585938,0.924255,-0.375305,-0.0631693,-0.12352,-2.36617
11154739487,-3,-4,-5,-1,6,-5,-5,-4,11154738763,0.123535,-0.0766602,0.996094,11154738763,0.8125,-0.625,0,11154738763,0.0690308,-0.00585938,0.924255,-0.375305,-0.0631693,-0.12352,-2.36617
11154739487,1,-1,-1,1,0,-1,-4,-4,11154738763,0.123535,-0.0766602,0.996094,11154738763,0.8125,-0.625,0,11154738763,0.0690308,-0.00585938,0.924255,-0.375305,-0.0631693,-0.12352,-2.36617
11154752293,-2,-2,0,-2,0,-1,-2,0,11154738763,0.123535,-0.0766602,0.996094,11154738763,0.8125,-0.625,0,11154738763,0.0690308,-0.00585938,0.924255,-0.375305,-0.0631693,-0.12352,-2.36617
11154752293,-2,1,0,-5,0,0,1,0,11154753053,0.129395,-0.0644531,1.00586,11154753053,-0.125,-1,0.5,11154753053,0.0690308,-0.00585938,0.924255,-0.375305,-0.0631693,-0.12352,-2.36617
11154759035,1,-4,-3,-6,-5,-4,4,0,11154753053,0.129395,-0.0644531,1.00586,11154753053,-0.125,-1,0.5,11154753053,0.0690308,-0.00585938,0.924255,-0.375305,-0.0631693,-0.12352,-2.36617
11154759035,-1,-1,-1,1,-4,-2,-1,1,11154753053,0.129395,-0.0644531,1.00586,11154753053,-0.125,-1,0.5,11154753053,0.0690308,-0.00585938,0.924255,-0.375305,-0.0631693,-0.12352,-2.36617
11154774746,-1,-2,3,-3,4,-3,-1,-4,11154753053,0.129395,-0.0644531,1.00586,11154753053,-0.125,-1,0.5,11154753053,0.0690308,-0.00585938,0.924255,-0.375305,-0.0631693,-0.12352,-2.36617
11154774746,-2,-1,-3,-1,0,0,-2,-3,11154775732,0.134766,-0.0634766,1.01074,11154775732,0.0625,-0.625,0.0625,11154775732,0.0690918,-0.00585938,0.924255,-0.375305,-0.0632165,-0.123634,-2.36617
11154781629,-1,0,-1,1,-2,-3,0,0,11154775732,0.134766,-0.0634766,1.01074,11154775732,0.0625,-0.625,0.0625,11154775732,0.0690918,-0.00585938,0.924255,-0.375305,-0.0632165,-0.123634,-2.36617
11154781629,-1,-1,-4,-3,-2,1,0,0,11154775732,0.134766,-0.0634766,1.01074,11154775732,0.0625,-0.625,0.0625,11154775732,0.0690918,-0.00585938,0.924255,-0.375305,-0.0632165,-0.123634,-2.36617
11154797994,-1,-1,-4,-3,-1,0,1,-2,11154775732,0.134766,-0.0634766,1.01074,11154775732,0.0625,-0.625,0.0625,11154775732,0.0690918,-0.00585938,0.924255,-0.375305,-0.0632165,-0.123634,-2.36617
11154797994,1,2,-2,4,2,1,1,-2,11154798697,0.133789,-0.0581055,1.01025,11154798697,1.1875,-0.3125,0.3125,11154798697,0.0690918,-0.0055542,0.924255,-0.375366,-0.0626572,-0.123864,-2.36612
11154799509,-5,-1,0,0,-5,1,-2,-2,11154798697,0.133789,-0.0581055,1.01025,11154798697,1.1875,-0.3125,0.3125,11154798697,0.0690918,-0.0055542,0.924255,-0.375366,-0.0626572,-0.123864,-2.36612
11154799509,-1,0,-1,-1,1,-2,0,0,11154798697,0.133789,-0.0581055,1.01025,11154798697,1.1875,-0.3125,0.3125,11154798697,0.0690918,-0.0055542,0.924255,-0.375366,-0.0626572,-0.123864,-2.36612
11154811568,-1,1,1,-1,2,-1,-1,0,11154798697,0.133789,-0.0581055,1.01025,11154798697,1.1875,-0.3125,0.3125,11154798697,0.0690918,-0.0055542,0.924255,-0.375366,-0.0626572,-0.123864,-2.36612
11154811568,-1,-3,0,-3,-3,-3,-5,-3,11154819750,0.137695,-0.0625,1.00049,11154819750,1.6875,-0.0625,-0.1875,11154819750,0.0691528,-0.00518799,0.924255,-0.375366,-0.062023,-0.124254,-2.36615
11154820511,0,-3,-1,-3,6,-1,0,0,11154819750,0.137695,-0.0625,1.00049,11154819750,1.6875,-0.0625,-0.1875,11154819750,0.0691528,-0.00518799,0.924255,-0.375366,-0.062023,-0.124254,-2.36615
11154820511,0,-2,-1,0,-6,0,-1,0,11154819750,0.137695,-0.0625,1.00049,11154819750,1.6875,-0.0625,-0.1875,11154819750,0.0691528,-0.00518799,0.924255,-0.375366,-0.062023,-0.124254,-2.36615
11154834841,0,-1,-2,-2,0,3,-4,0,11154819750,0.137695,-0.0625,1.00049,11154819750,1.6875,-0.0625,-0.1875,11154819750,0.0691528,-0.00518799,0.924255,-0.375366,-0.062023,-0.124254,-2.36615
11154834841,0,0,0,1,-1,3,0,-1,11154835519,0.124512,-0.0688477,0.992188,11154835519,1,0.6875,-0.1875,11154835519,0.0689697,-0.00518799,0.924255,-0.375366,-0.0618816,-0.123913,-2.36615
11154841514,-3,-1,0,-5,-5,4,-2,1,11154835519,0.124512,-0.0688477,0.992188,11154835519,1,0.6875,-0.1875,11154835519,0.0689697,-0.00518799,0.924255,-0.375366,-0.0618816,-0.123913,-2.36615
11154841514,-1,0,1,-4,0,-1,-4,-1,11154835519,0.124512,-0.0688477,0.992188,11154835519,1,0.6875,-0.1875,11154835519,0.0689697,-0.00518799,0.924255,-0.375366,-0.0618816,-0.123913,-2.36615
11154857877,0,0,-1,2,-5,-1,3,-1,11154835519,0.124512,-0.0688477,0.992188,11154835519,1,0.6875,-0.1875,11154835519,0.0689697,-0.00518799,0.924255,-0.375366,-0.0618816,-0.123913,-2.36615
11154857877,-1,1,-2,1,0,1,-5,1,11154858677,0.117676,-0.0678711,0.986816,11154858677,0.3125,0.75,0.4375,11154858677,0.0689697,-0.00518799,0.924255,-0.375366,-0.0618816,-0.123913,-2.36615
11154859501,0,-2,-2,-1,5,2,-2,-2,11154858677,0.117676,-0.0678711,0.986816,11154858677,0.3125,0.75,0.4375,11154858677,0.0689697,-0.00518799,0.924255,-0.375366,-0.0618816,-0.123913,-2.36615
11154859501,-1,-5,-2,1,-2,2,-2,-3,11154858677,0.117676,-0.0678711,0.986816,11154858677,0.3125,0.75,0.4375,11154858677,0.0689697,-0.00518799,0.924255,-0.375366,-0.0618816,-0.123913,-2.36615
11154880469,-2,0,0,-4,1,-4,2,-2,11154858677,0.117676,-0.0678711,0.986816,11154858677,0.3125,0.75,0.4375,11154858677,0.0689697,-0.00518799,0.924255,-0.375366,-0.0618816,-0.123913,-2.36615
11154880469,0,-3,-6,-1,-4,-5,-2,1,11154881230,0.125488,-0.0595703,0.985352,11154881230,-1.3125,0.6875,0.6875,11154881230,0.0689697,-0.00543213,0.924255,-0.375488,-0.0623527,-0.123727,-2.36596
11154882030,-3,-1,0,0,0,-3,-3,-1,11154881230,0.125488,-0.0595703,0.985352,11154881230,-1.3125,0.6875,0.6875,11154881230,0.0689697,-0.00543213,0.924255,-0.375488,-0.0623527,-0.123727,-2.36596
11154882030,-1,-2,0,0,-1,1,0,1,11154881230,0.125488,-0.0595703,0.985352,11154881230,-1.3125,0.6875,0.6875,11154881230,0.0689697,-0.00543213,0.924255,-0.375488,-0.0623527,-0.123727,-2.36596
11154894776,0,0,-2,0,3,-2,-3,-2,11154881230,0.125488,-0.0595703,0.985352,11154881230,-1.3125,0.6875,0.6875,11154881230,0.0689697,-0.00543213,0.924255,-0.375488,-0.0623527,-0.123727,-2.36596
11154894776,-1,-3,0,-3,-5,0,1,0,11154895558,0.129395,-0.0654297,0.986816,11154895558,-1.9375,0.0625,1.0625,11154895558,0.0691528,-0.0057373,0.924133,-0.37561,-0.0630776,-0.123819,-2.36552
11154901599,-2,0,-1,-1,3,3,0,1,11154895558,0.129395,-0.0654297,0.986816,11154895558,-1.9375,0.0625,1.0625,11154895558,0.0691528,-0.0057373,0.924133,-0.37561,-0.0630776,-0.123819,-2.36552
11154901599,0,-2,-3,0,0,-1,-2,-3,11154895558,0.129395,-0.0654297,0.986816,11154895558,-1.9375,0.0625,1.0625,11154895558,0.0691528,-0.0057373,0.924133,-0.37561,-0.0630776,-0.123819,-2.36552
11154917960,-1,-4,3,2,5,1,-3,-1,11154895558,0.129395,-0.0654297,0.986816,11154895558,-1.9375,0.0625,1.0625,11154895558,0.0691528,-0.0057373,0.924133,-0.37561,-0.0630776,-0.123819,-2.36552
11154917960,0,0,-2,-1,1,3,0,-3,11154918708,0.121582,-0.0844727,0.993652,11154918708,-1.625,-0.375,0.25,11154918708,0.069397,-0.00622559,0.924133,-0.375671,-0.0641832,-0.123903,-2.3654
11154919512,0,-3,-2,-2,-4,-5,-2,0,11154918708,0.121582,-0.0844727,0.993652,11154918708,-1.625,-0.375,0.25,11154918708,0.069397,-0.00622559,0.924133,-0.375671,-0.0641832,-0.123903,-2.3654
