timestamp,emg1,emg2,emg3,emg4,emg5,emg6,emg7,emg8,timestamp_accelerometer,accelerometer-x,accelerometer-y,accelerometer-z,timestamp_gyro,gyro-x,gyro-y,gyro-z,timestamp_orientation,orientation-x,orientation-y,orientation-z,,orientation-w,roll,pitch,yaw
140734799966975,1,0,0,0,0,0,0,0,12020797613,0.114746,-0.541992,0.834961,12020797613,1.6875,-0.4375,0.0625,12020797613,-0.236877,-0.160645,0.354309,0.890198,-0.569674,-0.118432,0.792234
12020803061,2,-1,-1,-6,3,-4,1,0,12020797613,0.114746,-0.541992,0.834961,12020797613,1.6875,-0.4375,0.0625,12020797613,-0.236877,-0.160645,0.354309,0.890198,-0.569674,-0.118432,0.792234
12020803061,4,0,0,2,3,-23,-5,-1,12020797613,0.114746,-0.541992,0.834961,12020797613,1.6875,-0.4375,0.0625,12020797613,-0.236877,-0.160645,0.354309,0.890198,-0.569674,-0.118432,0.792234
12020803869,0,2,1,5,22,38,1,0,12020797613,0.114746,-0.541992,0.834961,12020797613,1.6875,-0.4375,0.0625,12020797613,-0.236877,-0.160645,0.354309,0.890198,-0.569674,-0.118432,0.792234
12020803869,-1,-1,4,9,-33,-23,-4,1,12020797613,0.114746,-0.541992,0.834961,12020797613,1.6875,-0.4375,0.0625,12020797613,-0.236877,-0.160645,0.354309,0.890198,-0.569674,-0.118432,0.792234
12020804686,1,1,-4,-14,21,-8,-4,-3,12020797613,0.114746,-0.541992,0.834961,12020797613,1.6875,-0.4375,0.0625,12020797613,-0.236877,-0.160645,0.354309,0.890198,-0.569674,-0.118432,0.792234
12020804686,-3,-4,-5,-8,-14,23,6,-1,12020797613,0.114746,-0.541992,0.834961,12020797613,1.6875,-0.4375,0.0625,12020797613,-0.236877,-0.160645,0.354309,0.890198,-0.569674,-0.118432,0.792234
12020805476,0,-1,6,26,-3,-33,-4,-2,12020797613,0.114746,-0.541992,0.834961,12020797613,1.6875,-0.4375,0.0625,12020797613,-0.236877,-0.160645,0.354309,0.890198,-0.569674,-0.118432,0.792234
12020805476,0,-2,-4,-7,39,12,-3,-2,12020811068,0.118652,-0.539062,0.837402,12020811068,-0.4375,-1.4375,-0.125,12020811068,-0.236877,-0.160889,0.354309,0.890198,-0.569906,-0.11887,0.792429
12020816201,-1,-1,-2,0,-40,1,2,-2,12020811068,0.118652,-0.539062,0.837402,12020811068,-0.4375,-1.4375,-0.125,12020811068,-0.236877,-0.160889,0.354309,0.890198,-0.569906,-0.11887,0.792429
12020816201,-4,-3,-4,-8,20,1,-7,-2,12020811068,0.118652,-0.539062,0.837402,12020811068,-0.4375,-1.4375,-0.125,12020811068,-0.236877,-0.160889,0.354309,0.890198,-0.569906,-0.11887,0.792429
12020824952,0,1,-4,-7,-22,-10,-1,-2,12020811068,0.118652,-0.539062,0.837402,12020811068,-0.4375,-1.4375,-0.125,12020811068,-0.236877,-0.160889,0.354309,0.890198,-0.569906,-0.11887,0.792429
12020824952,1,-1,1,3,6,9,1,-2,12020831957,0.130371,-0.536621,0.846191,12020831957,0.4375,-0.75,0.0625,12020831957,-0.236816,-0.160889,0.354309,0.890198,-0.569783,-0.118913,0.792415
12020832661,0,0,-1,5,5,0,0,2,12020831957,0.130371,-0.536621,0.846191,12020831957,0.4375,-0.75,0.0625,12020831957,-0.236816,-0.160889,0.354309,0.890198,-0.569783,-0.118913,0.792415
12020832661,1,-3,-3,-8,-19,-2,-1,-1,12020831957,0.130371,-0.536621,0.846191,12020831957,0.4375,-0.75,0.0625,12020831957,-0.236816,-0.160889,0.354309,0.890198,-0.569783,-0.118913,0.792415
12020846915,0,0,-1,-6,0,2,-3,-1,12020831957,0.130371,-0.536621,0.846191,12020831957,0.4375,-0.75,0.0625,12020831957,-0.236816,-0.160889,0.354309,0.890198,-0.569783,-0.118913,0.792415
12020846915,2,1,-3,-1,-11,-14,0,1,12020847642,0.129883,-0.532227,0.843262,12020847642,0.75,-0.25,-0.5,12020847642,-0.236816,-0.16095,0.354309,0.890198,-0.569841,-0.119023,0.792463
12020854837,-6,1,0,0,19,19,-2,-5,12020847642,0.129883,-0.532227,0.843262,12020847642,0.75,-0.25,-0.5,12020847642,-0.236816,-0.16095,0.354309,0.890198,-0.569841,-0.119023,0.792463
12020854837,2,-2,1,7,18,-3,-3,1,12020847642,0.129883,-0.532227,0.843262,12020847642,0.75,-0.25,-0.5,12020847642,-0.236816,-0.16095,0.354309,0.890198,-0.569841,-0.119023,0.792463
12020870486,-2,-2,1,6,-15,-15,-1,3,12020847642,0.129883,-0.532227,0.843262,12020847642,0.75,-0.25,-0.5,12020847642,-0.236816,-0.16095,0.354309,0.890198,-0.569841,-0.119023,0.792463
12020870486,-7,-3,-1,-5,-1,-9,0,-5,12020872673,0.119141,-0.53418,0.845215,12020872673,-0.9375,0.4375,-0.3125,12020872673,-0.236816,-0.16095,0.354309,0.890198,-0.569841,-0.119023,0.792463
12020876222,1,-3,-2,-7,-8,1,7,2,12020872673,0.119141,-0.53418,0.845215,12020872673,-0.9375,0.4375,-0.3125,12020872673,-0.236816,-0.16095,0.354309,0.890198,-0.569841,-0.119023,0.792463
12020876222,-3,1,-1,-2,10,-1,-7,-2,12020872673,0.119141,-0.53418,0.845215,12020872673,-0.9375,0.4375,-0.3125,12020872673,-0.236816,-0.16095,0.354309,0.890198,-0.569841,-0.119023,0.792463
12020890970,2,-1,-2,-10,-34,1,-3,0,12020872673,0.119141,-0.53418,0.845215,12020872673,-0.9375,0.4375,-0.3125,12020872673,-0.236816,-0.16095,0.354309,0.890198,-0.569841,-0.119023,0.792463
12020890970,1,0,-3,-2,74,19,-5,-5,12020922494,0.118652,-0.542969,0.84375,12020922494,0.0625,-0.0625,0.1875,12020922494,-0.236816,-0.16095,0.354309,0.890198,-0.569841,-0.119023,0.792463
12020931184,-6,-1,1,12,7,0,0,3,12020922494,0.118652,-0.542969,0.84375,12020922494,0.0625,-0.0625,0.1875,12020922494,-0.236816,-0.16095,0.354309,0.890198,-0.569841,-0.119023,0.792463
12020931184,0,-1,0,-6,-10,-9,-5,-3,12020922494,0.118652,-0.542969,0.84375,12020922494,0.0625,-0.0625,0.1875,12020922494,-0.236816,-0.16095,0.354309,0.890198,-0.569841,-0.119023,0.792463
12020931933,-1,-2,-2,-2,3,-2,-3,-4,12020922494,0.118652,-0.542969,0.84375,12020922494,0.0625,-0.0625,0.1875,12020922494,-0.236816,-0.16095,0.354309,0.890198,-0.569841,-0.119023,0.792463
12020931933,-3,-2,-2,-2,-2,4,1,0,12020932762,0.117676,-0.546875,0.848633,12020932762,1.0625,-0.625,0.3125,12020932762,-0.236633,-0.16095,0.354431,0.890198,-0.569503,-0.119095,0.792699
12020933499,-2,-1,0,0,1,-3,2,1,12020932762,0.117676,-0.546875,0.848633,12020932762,1.0625,-0.625,0.3125,12020932762,-0.236633,-0.16095,0.354431,0.890198,-0.569503,-0.119095,0.792699
12020933499,-1,0,-3,-1,0,3,4,2,12020932762,0.117676,-0.546875,0.848633,12020932762,1.0625,-0.625,0.3125,12020932762,-0.236633,-0.16095,0.354431,0.890198,-0.569503,-0.119095,0.792699
12020935930,-2,0,-1,1,12,12,-4,-2,12020932762,0.117676,-0.546875,0.848633,12020932762,1.0625,-0.625,0.3125,12020932762,-0.236633,-0.16095,0.354431,0.890198,-0.569503,-0.119095,0.792699
12020935930,-2,-2,1,-1,-21,8,1,-4,12020932762,0.117676,-0.546875,0.848633,12020932762,1.0625,-0.625,0.3125,12020932762,-0.236633,-0.16095,0.354431,0.890198,-0.569503,-0.119095,0.792699
12020943488,1,-1,-2,-8,0,-21,-9,-4,12020932762,0.117676,-0.546875,0.848633,12020932762,1.0625,-0.625,0.3125,12020932762,-0.236633,-0.16095,0.354431,0.890198,-0.569503,-0.119095,0.792699
12020943488,0,1,0,5,-3,7,4,0,12020951723,0.121582,-0.547363,0.843262,12020951723,1.25,-1.375,-0.0625,12020951723,-0.23645,-0.161072,0.354492,0.890198,-0.569265,-0.119416,0.792894
12020952430,-2,-2,-4,-6,-3,-9,-3,-1,12020951723,0.121582,-0.547363,0.843262,12020951723,1.25,-1.375,-0.0625,12020951723,-0.23645,-0.161072,0.354492,0.890198,-0.569265,-0.119416,0.792894
12020952430,-2,-2,-1,0,12,25,4,5,12020951723,0.121582,-0.547363,0.843262,12020951723,1.25,-1.375,-0.0625,12020951723,-0.23645,-0.161072,0.354492,0.890198,-0.569265,-0.119416,0.792894
12020958566,-4,-1,-3,0,13,-2,-2,-7,12020951723,0.121582,-0.547363,0.843262,12020951723,1.25,-1.375,-0.0625,12020951723,-0.23645,-0.161072,0.354492,0.890198,-0.569265,-0.119416,0.792894
12020958566,-3,-1,-1,-1,-17,-6,-4,-3,12020966101,0.122559,-0.542969,0.849121,12020966101,0.3125,-0.875,-0.3125,12020966101,-0.23645,-0.161072,0.354492,0.890198,-0.569265,-0.119416,0.792894
12020973638,-2,-1,-1,-2,2,-1,0,-1,12020966101,0.122559,-0.542969,0.849121,12020966101,0.3125,-0.875,-0.3125,12020966101,-0.23645,-0.161072,0.354492,0.890198,-0.569265,-0.119416,0.792894
12020973638,5,1,2,4,-1,-6,-2,1,12020966101,0.122559,-0.542969,0.849121,12020966101,0.3125,-0.875,-0.3125,12020966101,-0.23645,-0.161072,0.354492,0.890198,-0.569265,-0.119416,0.792894
12020981140,3,-1,-3,-8,-6,3,5,4,12020966101,0.122559,-0.542969,0.849121,12020966101,0.3125,-0.875,-0.3125,12020966101,-0.23645,-0.161072,0.354492,0.890198,-0.569265,-0.119416,0.792894
12020981140,-3,-1,1,4,21,-3,0,-2,12020988723,0.119141,-0.544434,0.84668,12020988723,0.5625,-1.1875,-0.1875,12020988723,-0.236267,-0.161255,0.354553,0.890198,-0.569086,-0.119846,0.793137
12020996178,1,0,0,-7,-43,-23,-6,-1,12020988723,0.119141,-0.544434,0.84668,12020988723,0.5625,-1.1875,-0.1875,12020988723,-0.236267,-0.161255,0.354553,0.890198,-0.569086,-0.119846,0.793137
12020996178,-6,-3,-4,1,35,25,1,-3,12020988723,0.119141,-0.544434,0.84668,12020988723,0.5625,-1.1875,-0.1875,12020988723,-0.236267,-0.161255,0.354553,0.890198,-0.569086,-0.119846,0.793137
12021003649,2,-2,0,-1,-6,-3,-7,0,12020988723,0.119141,-0.544434,0.84668,12020988723,0.5625,-1.1875,-0.1875,12020988723,-0.236267,-0.161255,0.354553,0.890198,-0.569086,-0.119846,0.793137
12021003649,0,2,-1,2,39,39,6,-1,12021011161,0.120605,-0.538086,0.84668,12021011161,0.4375,-1.125,0.25,12021011161,-0.236084,-0.161377,0.354675,0.890137,-0.568841,-0.120117,0.79344
12021019148,4,-1,0,-3,-43,-27,0,0,12021011161,0.120605,-0.538086,0.84668,12021011161,0.4375,-1.125,0.25,12021011161,-0.236084,-0.161377,0.354675,0.890137,-0.568841,-0.120117,0.79344
12021019148,-2,-3,-2,-7,-5,-43,-7,1,12021011161,0.120605,-0.538086,0.84668,12021011161,0.4375,-1.125,0.25,12021011161,-0.236084,-0.161377,0.354675,0.890137,-0.568841,-0.120117,0.79344
12021019904,-8,-1,1,-1,2,7,0,-2,12021011161,0.120605,-0.538086,0.84668,12021011161,0.4375,-1.125,0.25,12021011161,-0.236084,-0.161377,0.354675,0.890137,-0.568841,-0.120117,0.79344
12021019904,1,-4,-2,-2,-6,1,-3,1,12021026186,0.114258,-0.53125,0.839355,12021026186,-0.3125,-0.5625,-0.1875,12021026186,-0.236084,-0.161316,0.354675,0.890137,-0.568782,-0.120008,0.793391
12021041807,8,3,3,2,8,10,2,1,12021026186,0.114258,-0.53125,0.839355,12021026186,-0.3125,-0.5625,-0.1875,12021026186,-0.236084,-0.161316,0.354675,0.890137,-0.568782,-0.120008,0.793391
12021041807,-13,1,0,0,1,-4,-4,-2,12021026186,0.114258,-0.53125,0.839355,12021026186,-0.3125,-0.5625,-0.1875,12021026186,-0.236084,-0.161316,0.354675,0.890137,-0.568782,-0.120008,0.793391
12021042522,9,-2,0,4,-6,-2,-3,-4,12021026186,0.114258,-0.53125,0.839355,12021026186,-0.3125,-0.5625,-0.1875,12021026186,-0.236084,-0.161316,0.354675,0.890137,-0.568782,-0.120008,0.793391
12021042522,0,-1,0,-4,-16,-13,-4,0,12021048658,0.11377,-0.541992,0.845703,12021048658,-1.0625,-0.1875,0.25,12021048658,-0.236328,-0.161377,0.354675,0.890076,-0.56931,-0.119923,0.793465
12021056084,-2,-2,-1,2,0,5,4,2,12021048658,0.11377,-0.541992,0.845703,12021048658,-1.0625,-0.1875,0.25,12021048658,-0.236328,-0.161377,0.354675,0.890076,-0.56931,-0.119923,0.793465
12021056084,5,0,-5,0,25,0,-2,1,12021048658,0.11377,-0.541992,0.845703,12021048658,-1.0625,-0.1875,0.25,12021048658,-0.236328,-0.161377,0.354675,0.890076,-0.56931,-0.119923,0.793465
12021063640,-1,-1,2,9,14,13,3,-1,12021048658,0.11377,-0.541992,0.845703,12021048658,-1.0625,-0.1875,0.25,12021048658,-0.236328,-0.161377,0.354675,0.890076,-0.56931,-0.119923,0.793465
12021063640,-4,1,3,-6,-42,-54,-6,-5,12021071140,0.11377,-0.550781,0.851074,12021071140,0.8125,0,0.4375,12021071140,-0.236328,-0.161316,0.354736,0.890076,-0.569269,-0.119785,0.793555
12021079246,0,-1,1,9,48,28,3,2,12021071140,0.11377,-0.550781,0.851074,12021071140,0.8125,0,0.4375,12021071140,-0.236328,-0.161316,0.354736,0.890076,-0.569269,-0.119785,0.793555
12021079246,0,-2,-3,-9,-25,-17,0,-5,12021071140,0.11377,-0.550781,0.851074,12021071140,0.8125,0,0.4375,12021071140,-0.236328,-0.161316,0.354736,0.890076,-0.569269,-0.119785,0.793555
12021079907,-1,2,-1,-3,-26,4,-1,2,12021071140,0.11377,-0.550781,0.851074,12021071140,0.8125,0,0.4375,12021071140,-0.236328,-0.161316,0.354736,0.890076,-0.569269,-0.119785,0.793555
12021079907,-2,-5,-3,-1,13,5,-5,-4,12021086007,0.118652,-0.541016,0.848145,12021086007,1.8125,0.0625,0.5625,12021086007,-0.236084,-0.161133,0.354858,0.890137,-0.568658,-0.119593,0.793662
12021101957,-4,-2,-1,-3,-6,-13,2,0,12021086007,0.118652,-0.541016,0.848145,12021086007,1.8125,0.0625,0.5625,12021086007,-0.236084,-0.161133,0.354858,0.890137,-0.568658,-0.119593,0.793662
12021101957,14,2,-2,-2,8,5,-2,2,12021086007,0.118652,-0.541016,0.848145,12021086007,1.8125,0.0625,0.5625,12021086007,-0.236084,-0.161133,0.354858,0.890137,-0.568658,-0.119593,0.793662
12021102434,-17,2,-3,-2,16,4,-2,-9,12021086007,0.118652,-0.541016,0.848145,12021086007,1.8125,0.0625,0.5625,12021086007,-0.236084,-0.161133,0.354858,0.890137,-0.568658,-0.119593,0.793662
12021102434,3,-4,0,-2,-22,-1,1,3,12021108690,0.121094,-0.529297,0.845703,12021108690,0.3125,0.1875,0,12021108690,-0.236023,-0.161133,0.354858,0.890137,-0.568535,-0.119636,0.793648
12021116125,-2,-1,0,-5,-9,-5,2,-4,12021108690,0.121094,-0.529297,0.845703,12021108690,0.3125,0.1875,0,12021108690,-0.236023,-0.161133,0.354858,0.890137,-0.568535,-0.119636,0.793648
12021116125,-2,-2,1,3,-11,6,1,4,12021108690,0.121094,-0.529297,0.845703,12021108690,0.3125,0.1875,0,12021108690,-0.236023,-0.161133,0.354858,0.890137,-0.568535,-0.119636,0.793648
12021123466,10,2,-1,-9,-25,-11,-3,4,12021108690,0.121094,-0.529297,0.845703,12021108690,0.3125,0.1875,0,12021108690,-0.236023,-0.161133,0.354858,0.890137,-0.568535,-0.119636,0.793648
12021123466,-4,0,-1,0,12,-22,-8,-5,12021131072,0.125488,-0.539551,0.854004,12021131072,-0.625,0.4375,0,12021131072,-0.236023,-0.161133,0.354858,0.890137,-0.568535,-0.119636,0.793648
12021139123,-5,-3,2,20,24,-4,5,0,12021131072,0.125488,-0.539551,0.854004,12021131072,-0.625,0.4375,0,12021131072,-0.236023,-0.161133,0.354858,0.890137,-0.568535,-0.119636,0.793648
12021139123,3,3,3,3,-15,-3,2,-3,12021131072,0.125488,-0.539551,0.854004,12021131072,-0.625,0.4375,0,12021131072,-0.236023,-0.161133,0.354858,0.890137,-0.568535,-0.119636,0.793648
12021139941,0,-3,-1,-7,-1,-6,-4,0,12021131072,0.125488,-0.539551,0.854004,12021131072,-0.625,0.4375,0,12021131072,-0.236023,-0.161133,0.354858,0.890137,-0.568535,-0.119636,0.793648
12021139941,-2,-1,-6,-5,3,9,2,1,12021146099,0.125977,-0.546875,0.841797,12021146099,-0.125,-0.125,0.6875,12021146099,-0.236023,-0.161194,0.354858,0.890137,-0.568593,-0.119746,0.793697
12021161621,0,0,-5,-12,-7,-4,-4,-3,12021146099,0.125977,-0.546875,0.841797,12021146099,-0.125,-0.125,0.6875,12021146099,-0.236023,-0.161194,0.354858,0.890137,-0.568593,-0.119746,0.793697
12021161621,-4,-2,-1,3,2,-14,0,-2,12021146099,0.125977,-0.546875,0.841797,12021146099,-0.125,-0.125,0.6875,12021146099,-0.236023,-0.161194,0.354858,0.890137,-0.568593,-0.119746,0.793697
12021162380,-2,-4,-2,-2,7,13,0,0,12021146099,0.125977,-0.546875,0.841797,12021146099,-0.125,-0.125,0.6875,12021146099,-0.236023,-0.161194,0.354858,0.890137,-0.568593,-0.119746,0.793697
12021162380,-1,-2,1,-3,-10,8,2,-1,12021168510,0.122559,-0.549805,0.842285,12021168510,0.3125,-0.25,-0.1875,12021168510,-0.236023,-0.161194,0.354858,0.890137,-0.568593,-0.119746,0.793697
12021175960,0,-2,-3,-5,0,0,-3,1,12021168510,0.122559,-0.549805,0.842285,12021168510,0.3125,-0.25,-0.1875,12021168510,-0.236023,-0.161194,0.354858,0.890137,-0.568593,-0.119746,0.793697
12021175960,-2,0,0,1,-5,1,2,1,12021168510,0.122559,-0.549805,0.842285,12021168510,0.3125,-0.25,-0.1875,12021168510,-0.236023,-0.161194,0.354858,0.890137,-0.568593,-0.119746,0.793697
12021183468,-1,-1,-3,-2,15,-12,1,-1,12021168510,0.122559,-0.549805,0.842285,12021168510,0.3125,-0.25,-0.1875,12021168510,-0.236023,-0.161194,0.354858,0.890137,-0.568593,-0.119746,0.793697
12021183468,5,-1,-1,5,3,7,1,-2,12021191037,0.116699,-0.540527,0.84082,12021191037,0.625,-0.5625,-0.5,12021191037,-0.236084,-0.161194,0.354858,0.890137,-0.568716,-0.119702,0.793711
12021199144,-6,-1,0,-9,-33,1,-2,1,12021191037,0.116699,-0.540527,0.84082,12021191037,0.625,-0.5625,-0.5,12021191037,-0.236084,-0.161194,0.354858,0.890137,-0.568716,-0.119702,0.793711
12021199144,-4,-3,-3,-10,-1,-20,-7,-8,12021191037,0.116699,-0.540527,0.84082,12021191037,0.625,-0.5625,-0.5,12021191037,-0.236084,-0.161194,0.354858,0.890137,-0.568716,-0.119702,0.793711
12021199891,-1,-1,5,24,21,10,2,0,12021191037,0.116699,-0.540527,0.84082,12021191037,0.625,-0.5625,-0.5,12021191037,-0.236084,-0.161194,0.354858,0.890137,-0.568716,-0.119702,0.793711
12021199891,1,0,-2,-5,9,9,1,0,12021206037,0.123535,-0.536621,0.847168,12021206037,-0.1875,-0.625,0.125,12021206037,-0.236023,-0.161194,0.354858,0.890137,-0.568593,-0.119746,0.793697
12021221626,-3,0,1,10,1,-3,-2,-2,12021206037,0.123535,-0.536621,0.847168,12021206037,-0.1875,-0.625,0.125,12021206037,-0.236023,-0.161194,0.354858,0.890137,-0.568593,-0.119746,0.793697
12021221626,7,1,0,3,-2,19,6,1,12021206037,0.123535,-0.536621,0.847168,12021206037,-0.1875,-0.625,0.125,12021206037,-0.236023,-0.161194,0.354858,0.890137,-0.568593,-0.119746,0.793697
12021222400,-15,-6,-5,-7,15,4,3,-4,12021206037,0.123535,-0.536621,0.847168,12021206037,-0.1875,-0.625,0.125,12021206037,-0.236023,-0.161194,0.354858,0.890137,-0.568593,-0.119746,0.793697
12021222400,-3,1,-1,-4,2,1,-7,-6,12021228543,0.121582,-0.535156,0.848145,12021228543,-0.5,-0.9375,-0.3125,12021228543,-0.236023,-0.161194,0.354858,0.890137,-0.568593,-0.119746,0.793697
12021244280,-1,1,-1,-6,-15,-8,-4,3,12021228543,0.121582,-0.535156,0.848145,12021228543,-0.5,-0.9375,-0.3125,12021228543,-0.236023,-0.161194,0.354858,0.890137,-0.568593,-0.119746,0.793697
12021244280,3,-1,-4,-6,2,-8,-4,-1,12021228543,0.121582,-0.535156,0.848145,12021228543,-0.5,-0.9375,-0.3125,12021228543,-0.236023,-0.161194,0.354858,0.890137,-0.568593,-0.119746,0.793697
12021244951,4,0,0,0,-25,5,6,-2,12021228543,0.121582,-0.535156,0.848145,12021228543,-0.5,-0.9375,-0.3125,12021228543,-0.236023,-0.161194,0.354858,0.890137,-0.568593,-0.119746,0.793697
12021244951,-3,-1,0,-2,29,-10,-1,3,12021251058,0.118164,-0.541504,0.841797,12021251058,0.3125,-0.375,-0.8125,12021251058,-0.236023,-0.161194,0.354858,0.890137,-0.568593,-0.119746,0.793697
12021267353,0,-3,-2,4,2,8,-2,-4,12021251058,0.118164,-0.541504,0.841797,12021251058,0.3125,-0.375,-0.8125,12021251058,-0.236023,-0.161194,0.354858,0.890137,-0.568593,-0.119746,0.793697
12021267353,-5,-2,-5,-9,3,0,-6,-5,12021251058,0.118164,-0.541504,0.841797,12021251058,0.3125,-0.375,-0.8125,12021251058,-0.236023,-0.161194,0.354858,0.890137,-0.568593,-0.119746,0.793697
12021268086,1,0,2,6,-6,4,-2,1,12021251058,0.118164,-0.541504,0.841797,12021251058,0.3125,-0.375,-0.8125,12021251058,-0.236023,-0.161194,0.354858,0.890137,-0.568593,-0.119746,0.793697
12021268086,-1,-2,-2,-1,9,4,3,7,12021268899,0.110352,-0.542969,0.853027,12021268899,1.8125,0.25,-1.0625,12021268899,-0.235779,-0.16095,0.354736,0.890259,-0.567882,-0.11958,0.79323
12021281653,4,1,-1,0,-10,-11,-3,-1,12021268899,0.110352,-0.542969,0.853027,12021268899,1.8125,0.25,-1.0625,12021268899,-0.235779,-0.16095,0.354736,0.890259,-0.567882,-0.11958,0.79323
12021281653,-10,-4,-2,6,8,19,0,-4,12021268899,0.110352,-0.542969,0.853027,12021268899,1.8125,0.25,-1.0625,12021268899,-0.235779,-0.16095,0.354736,0.890259,-0.567882,-0.11958,0.79323
12021282401,0,0,-2,-14,-4,-39,-3,-5,12021268899,0.110352,-0.542969,0.853027,12021268899,1.8125,0.25,-1.0625,12021268899,-0.235779,-0.16095,0.354736,0.890259,-0.567882,-0.11958,0.79323
12021282401,3,-1,2,4,-35,10,-4,-2,12021288451,0.108398,-0.527832,0.844238,12021288451,1.4375,0,-1,12021288451,-0.235474,-0.160706,0.354675,0.890442,-0.567089,-0.119448,0.79292
12021295924,-2,1,-2,-2,36,10,1,-1,12021288451,0.108398,-0.527832,0.844238,12021288451,1.4375,0,-1,12021288451,-0.235474,-0.160706,0.354675,0.890442,-0.567089,-0.119448,0.79292
12021295924,10,0,4,0,-31,2,-1,4,12021288451,0.108398,-0.527832,0.844238,12021288451,1.4375,0,-1,12021288451,-0.235474,-0.160706,0.354675,0.890442,-0.567089,-0.119448,0.79292
12021303422,-14,1,-1,-6,-16,3,1,-2,12021288451,0.108398,-0.527832,0.844238,12021288451,1.4375,0,-1,12021288451,-0.235474,-0.160706,0.354675,0.890442,-0.567089,-0.119448,0.79292
12021303422,-1,-5,-2,0,6,-9,-1,-1,12021310979,0.118652,-0.540039,0.851562,12021310979,-0.8125,0.5625,-0.3125,12021310979,-0.235474,-0.160706,0.354675,0.890442,-0.567089,-0.119448,0.79292
12021319120,1,-4,0,-3,-2,7,-5,-4,12021310979,0.118652,-0.540039,0.851562,12021310979,-0.8125,0.5625,-0.3125,12021310979,-0.235474,-0.160706,0.354675,0.890442,-0.567089,-0.119448,0.79292
12021319120,1,-1,-2,-5,-3,-16,-3,3,12021310979,0.118652,-0.540039,0.851562,12021310979,-0.8125,0.5625,-0.3125,12021310979,-0.235474,-0.160706,0.354675,0.890442,-0.567089,-0.119448,0.79292
12021319920,8,-2,-2,1,-5,17,1,0,12021310979,0.118652,-0.540039,0.851562,12021310979,-0.8125,0.5625,-0.3125,12021310979,-0.235474,-0.160706,0.354675,0.890442,-0.567089,-0.119448,0.79292
12021319920,-1,3,0,1,-3,2,2,0,12021326011,0.127441,-0.55127,0.848633,12021326011,-0.0625,0.875,-0.375,12021326011,-0.235474,-0.160767,0.354675,0.890442,-0.567147,-0.119558,0.792968
12021341599,-7,-3,-3,-1,2,12,1,-2,12021326011,0.127441,-0.55127,0.848633,12021326011,-0.0625,0.875,-0.375,12021326011,-0.235474,-0.160767,0.354675,0.890442,-0.567147,-0.119558,0.792968
12021341599,-2,0,2,2,5,-15,-4,-4,12021326011,0.127441,-0.55127,0.848633,12021326011,-0.0625,0.875,-0.375,12021326011,-0.235474,-0.160767,0.354675,0.890442,-0.567147,-0.119558,0.792968
12021342387,-2,-1,-2,-4,1,-11,-4,-3,12021326011,0.127441,-0.55127,0.848633,12021326011,-0.0625,0.875,-0.375,12021326011,-0.235474,-0.160767,0.354675,0.890442,-0.567147,-0.119558,0.792968
12021342387,-1,-2,-3,-5,-13,6,-1,-1,12021348514,0.125,-0.543457,0.852539,12021348514,1.1875,1.3125,-0.8125,12021348514,-0.235352,-0.160522,0.354553,0.890564,-0.566684,-0.119305,0.79253
12021355923,2,0,2,2,13,2,-3,-2,12021348514,0.125,-0.543457,0.852539,12021348514,1.1875,1.3125,-0.8125,12021348514,-0.235352,-0.160522,0.354553,0.890564,-0.566684,-0.119305,0.79253
12021355923,-3,-2,-1,-2,-6,-6,-2,0,12021348514,0.125,-0.543457,0.852539,12021348514,1.1875,1.3125,-0.8125,12021348514,-0.235352,-0.160522,0.354553,0.890564,-0.566684,-0.119305,0.79253
12021371791,1,-2,-3,-2,14,27,5,2,12021348514,0.125,-0.543457,0.852539,12021348514,1.1875,1.3125,-0.8125,12021348514,-0.235352,-0.160522,0.354553,0.890564,-0.566684,-0.119305,0.79253
12021371791,-1,-2,-6,-19,-12,-13,0,-3,12021372552,0.119629,-0.542969,0.84375,12021372552,0.25,1.125,-0.4375,12021372552,-0.235413,-0.1604,0.354431,0.890625,-0.566683,-0.11912,0.7922
12021379154,-1,-1,6,17,2,4,1,1,12021372552,0.119629,-0.542969,0.84375,12021372552,0.25,1.125,-0.4375,12021372552,-0.235413,-0.1604,0.354431,0.890625,-0.566683,-0.11912,0.7922
12021379154,-2,-1,-2,-2,-21,1,2,-1,12021372552,0.119629,-0.542969,0.84375,12021372552,0.25,1.125,-0.4375,12021372552,-0.235413,-0.1604,0.354431,0.890625,-0.566683,-0.11912,0.7922
12021379901,3,1,10,22,15,-3,-10,1,12021372552,0.119629,-0.542969,0.84375,12021372552,0.25,1.125,-0.4375,12021372552,-0.235413,-0.1604,0.354431,0.890625,-0.566683,-0.11912,0.7922
12021379901,-2,0,-4,-5,12,15,2,-3,12021386030,0.124512,-0.536133,0.850098,12021386030,1.1875,0.4375,0.375,12021386030,-0.235229,-0.160217,0.354492,0.890686,-0.56618,-0.118913,0.792183
12021401725,-1,0,-6,-17,-15,-12,1,-1,12021386030,0.124512,-0.536133,0.850098,12021386030,1.1875,0.4375,0.375,12021386030,-0.235229,-0.160217,0.354492,0.890686,-0.56618,-0.118913,0.792183
12021401725,-6,-2,0,-5,-6,6,0,-3,12021386030,0.124512,-0.536133,0.850098,12021386030,1.1875,0.4375,0.375,12021386030,-0.235229,-0.160217,0.354492,0.890686,-0.56618,-0.118913,0.792183
12021402417,4,-1,-5,-6,9,1,2,5,12021386030,0.124512,-0.536133,0.850098,12021386030,1.1875,0.4375,0.375,12021386030,-0.235229,-0.160217,0.354492,0.890686,-0.56618,-0.118913,0.792183
12021402417,-2,1,3,10,-7,4,-2,-5,12021408686,0.127441,-0.530273,0.839844,12021408686,0.875,0.4375,-1,12021408686,-0.235168,-0.160278,0.354492,0.890686,-0.566114,-0.119066,0.792217
12021416064,-2,-2,-3,-1,2,-15,-6,1,12021408686,0.127441,-0.530273,0.839844,12021408686,0.875,0.4375,-1,12021408686,-0.235168,-0.160278,0.354492,0.890686,-0.566114,-0.119066,0.792217
12021416064,-8,-1,-2,0,9,-4,0,-2,12021408686,0.127441,-0.530273,0.839844,12021408686,0.875,0.4375,-1,12021408686,-0.235168,-0.160278,0.354492,0.890686,-0.566114,-0.119066,0.792217
12021423586,2,-3,-1,-7,-18,10,-3,-2,12021408686,0.127441,-0.530273,0.839844,12021408686,0.875,0.4375,-1,12021408686,-0.235168,-0.160278,0.354492,0.890686,-0.566114,-0.119066,0.792217
12021423586,-2,2,1,4,8,-1,-2,0,12021431068,0.118652,-0.525879,0.846191,12021431068,-1.3125,0.6875,-2.375,12021431068,-0.235229,-0.160278,0.354065,0.890808,-0.56617,-0.119264,0.79132
12021439327,-6,-2,-2,-1,-1,12,2,-3,12021431068,0.118652,-0.525879,0.846191,12021431068,-1.3125,0.6875,-2.375,12021431068,-0.235229,-0.160278,0.354065,0.890808,-0.56617,-0.119264,0.79132
12021439327,4,-6,-1,-4,-3,-10,-1,-2,12021431068,0.118652,-0.525879,0.846191,12021431068,-1.3125,0.6875,-2.375,12021431068,-0.235229,-0.160278,0.354065,0.890808,-0.56617,-0.119264,0.79132
12021439978,3,0,-1,-5,4,-6,-1,-1,12021431068,0.118652,-0.525879,0.846191,12021431068,-1.3125,0.6875,-2.375,12021431068,-0.235229,-0.160278,0.354065,0.890808,-0.56617,-0.119264,0.79132
12021439978,1,-2,-1,2,-1,13,-1,-1,12021446091,0.113281,-0.538574,0.860352,12021446091,-0.75,1.875,-1.6875,12021446091,-0.235413,-0.159973,0.35376,0.890991,-0.566241,-0.11879,0.790517
12021461808,-2,0,-2,-5,-4,6,1,-1,12021446091,0.113281,-0.538574,0.860352,12021446091,-0.75,1.875,-1.6875,12021446091,-0.235413,-0.159973,0.35376,0.890991,-0.566241,-0.11879,0.790517
12021461808,2,3,4,7,8,27,-4,-2,12021446091,0.113281,-0.538574,0.860352,12021446091,-0.75,1.875,-1.6875,12021446091,-0.235413,-0.159973,0.35376,0.890991,-0.566241,-0.11879,0.790517
12021462422,-12,-11,-5,3,24,-34,3,-4,12021446091,0.113281,-0.538574,0.860352,12021446091,-0.75,1.875,-1.6875,12021446091,-0.235413,-0.159973,0.35376,0.890991,-0.566241,-0.11879,0.790517
12021462422,1,-1,1,7,-15,-11,-5,-4,12021468723,0.111816,-0.541016,0.847168,12021468723,-0.0625,1.5,-0.625,12021468723,-0.235535,-0.159668,0.353577,0.891052,-0.566174,-0.118261,0.789917
12021475954,0,0,1,-4,5,5,1,5,12021468723,0.111816,-0.541016,0.847168,12021468723,-0.0625,1.5,-0.625,12021468723,-0.235535,-0.159668,0.353577,0.891052,-0.566174,-0.118261,0.789917
12021475954,1,-1,-5,-14,4,0,4,0,12021468723,0.111816,-0.541016,0.847168,12021468723,-0.0625,1.5,-0.625,12021468723,-0.235535,-0.159668,0.353577,0.891052,-0.566174,-0.118261,0.789917
12021483470,-1,4,5,12,-30,-5,-7,-3,12021468723,0.111816,-0.541016,0.847168,12021468723,-0.0625,1.5,-0.625,12021468723,-0.235535,-0.159668,0.353577,0.891052,-0.566174,-0.118261,0.789917
12021483470,1,-1,0,-2,0,-17,-3,0,12021491270,0.121582,-0.55127,0.844727,12021491270,0.3125,1.125,0,12021491270,-0.235657,-0.159546,0.353577,0.891052,-0.566306,-0.117955,0.789848
12021499276,-1,-3,-1,4,47,8,1,-1,12021491270,0.121582,-0.55127,0.844727,12021491270,0.3125,1.125,0,12021491270,-0.235657,-0.159546,0.353577,0.891052,-0.566306,-0.117955,0.789848
12021499276,-5,-1,1,0,-65,-17,-2,-1,12021491270,0.121582,-0.55127,0.844727,12021491270,0.3125,1.125,0,12021491270,-0.235657,-0.159546,0.353577,0.891052,-0.566306,-0.117955,0.789848
12021499990,4,1,-4,-7,36,8,1,2,12021491270,0.121582,-0.55127,0.844727,12021491270,0.3125,1.125,0,12021491270,-0.235657,-0.159546,0.353577,0.891052,-0.566306,-0.117955,0.789848
12021499990,-3,-2,0,5,26,-6,-1,0,12021506242,0.125,-0.541504,0.842285,12021506242,-0.4375,0.375,-0.5,12021506242,-0.235657,-0.159607,0.353516,0.891052,-0.566347,-0.118094,0.789757
12021521785,-1,1,-1,-3,-18,-12,-7,-3,12021506242,0.125,-0.541504,0.842285,12021506242,-0.4375,0.375,-0.5,12021506242,-0.235657,-0.159607,0.353516,0.891052,-0.566347,-0.118094,0.789757
12021521785,1,2,0,-2,20,4,1,1,12021506242,0.125,-0.541504,0.842285,12021506242,-0.4375,0.375,-0.5,12021506242,-0.235657,-0.159607,0.353516,0.891052,-0.566347,-0.118094,0.789757
12021522475,1,2,0,6,-22,10,3,-2,12021506242,0.125,-0.541504,0.842285,12021506242,-0.4375,0.375,-0.5,12021506242,-0.235657,-0.159607,0.353516,0.891052,-0.566347,-0.118094,0.789757
12021522475,-2,-3,-3,-2,-10,-9,-1,-1,12021528725,0.131836,-0.532715,0.846191,12021528725,0.1875,-0.3125,0.0625,12021528725,-0.235657,-0.159607,0.353516,0.891052,-0.566347,-0.118094,0.789757
12021544293,-3,-2,-1,-4,1,-5,1,-1,12021528725,0.131836,-0.532715,0.846191,12021528725,0.1875,-0.3125,0.0625,12021528725,-0.235657,-0.159607,0.353516,0.891052,-0.566347,-0.118094,0.789757
12021544293,1,0,2,5,16,14,0,0,12021528725,0.131836,-0.532715,0.846191,12021528725,0.1875,-0.3125,0.0625,12021528725,-0.235657,-0.159607,0.353516,0.891052,-0.566347,-0.118094,0.789757
12021545011,0,-1,1,-4,-28,-9,-3,-1,12021528725,0.131836,-0.532715,0.846191,12021528725,0.1875,-0.3125,0.0625,12021528725,-0.235657,-0.159607,0.353516,0.891052,-0.566347,-0.118094,0.789757
12021545011,-4,1,-4,-16,-19,-12,-2,-1,12021551171,0.126465,-0.531738,0.850586,12021551171,-0.4375,-0.25,0.1875,12021551171,-0.235596,-0.159607,0.353516,0.891052,-0.566223,-0.118137,0.789744
12021559247,12,4,3,17,11,-8,1,2,12021551171,0.126465,-0.531738,0.850586,12021551171,-0.4375,-0.25,0.1875,12021551171,-0.235596,-0.159607,0.353516,0.891052,-0.566223,-0.118137,0.789744
12021559247,-22,-6,-4,-6,-3,9,0,-7,12021551171,0.126465,-0.531738,0.850586,12021551171,-0.4375,-0.25,0.1875,12021551171,-0.235596,-0.159607,0.353516,0.891052,-0.566223,-0.118137,0.789744
12021559914,-1,-3,-1,-10,-15,0,0,2,12021551171,0.126465,-0.531738,0.850586,12021551171,-0.4375,-0.25,0.1875,12021551171,-0.235596,-0.159607,0.353516,0.891052,-0.566223,-0.118137,0.789744
12021559914,-4,-2,-5,-4,5,6,-3,0,12021566173,0.120605,-0.529785,0.852051,12021566173,-0.25,-0.375,-0.3125,12021566173,-0.235596,-0.159607,0.353516,0.891052,-0.566223,-0.118137,0.789744
12021581794,2,-1,-6,-14,-17,-6,-4,-3,12021566173,0.120605,-0.529785,0.852051,12021566173,-0.25,-0.375,-0.3125,12021566173,-0.235596,-0.159607,0.353516,0.891052,-0.566223,-0.118137,0.789744
12021581794,0,4,-2,1,18,6,1,-1,12021566173,0.120605,-0.529785,0.852051,12021566173,-0.25,-0.375,-0.3125,12021566173,-0.235596,-0.159607,0.353516,0.891052,-0.566223,-0.118137,0.789744
12021582433,1,-9,-3,-1,21,1,-5,-6,12021566173,0.120605,-0.529785,0.852051,12021566173,-0.25,-0.375,-0.3125,12021566173,-0.235596,-0.159607,0.353516,0.891052,-0.566223,-0.118137,0.789744
12021582433,5,-2,-2,-3,-30,-6,1,3,12021588712,0.116699,-0.535156,0.851074,12021588712,-0.0625,-0.5,-0.0625,12021588712,-0.235596,-0.159607,0.353516,0.891052,-0.566223,-0.118137,0.789744
12021604144,-4,-1,-2,-2,-6,5,0,0,12021588712,0.116699,-0.535156,0.851074,12021588712,-0.0625,-0.5,-0.0625,12021588712,-0.235596,-0.159607,0.353516,0.891052,-0.566223,-0.118137,0.789744
12021604144,3,0,-2,-2,7,-14,-2,-5,12021588712,0.116699,-0.535156,0.851074,12021588712,-0.0625,-0.5,-0.0625,12021588712,-0.235596,-0.159607,0.353516,0.891052,-0.566223,-0.118137,0.789744
12021604902,-4,-3,-6,-7,-20,-4,0,1,12021588712,0.116699,-0.535156,0.851074,12021588712,-0.0625,-0.5,-0.0625,12021588712,-0.235596,-0.159607,0.353516,0.891052,-0.566223,-0.118137,0.789744
12021604902,-1,0,1,-5,-5,7,4,0,12021611204,0.118652,-0.535645,0.854492,12021611204,-0.625,-0.5625,-0.5625,12021611204,-0.235535,-0.159607,0.353516,0.891052,-0.5661,-0.118181,0.78973
12021619172,-1,1,3,7,-10,-14,-4,0,12021611204,0.118652,-0.535645,0.854492,12021611204,-0.625,-0.5625,-0.5625,12021611204,-0.235535,-0.159607,0.353516,0.891052,-0.5661,-0.118181,0.78973
12021619172,-6,-3,-2,10,27,15,0,-3,12021611204,0.118652,-0.535645,0.854492,12021611204,-0.625,-0.5625,-0.5625,12021611204,-0.235535,-0.159607,0.353516,0.891052,-0.5661,-0.118181,0.78973
12021619874,1,1,-4,-13,-6,1,-2,0,12021611204,0.118652,-0.535645,0.854492,12021611204,-0.625,-0.5625,-0.5625,12021611204,-0.235535,-0.159607,0.353516,0.891052,-0.5661,-0.118181,0.78973
12021619874,-3,-2,-3,-1,9,-6,4,1,12021626224,0.11377,-0.540527,0.84668,12021626224,-0.4375,0,-0.0625,12021626224,-0.235535,-0.159607,0.353516,0.891052,-0.5661,-0.118181,0.78973
12021641808,0,-4,-3,2,-12,8,-2,-2,12021626224,0.11377,-0.540527,0.84668,12021626224,-0.4375,0,-0.0625,12021626224,-0.235535,-0.159607,0.353516,0.891052,-0.5661,-0.118181,0.78973
12021641808,4,0,3,-2,2,-16,-4,0,12021626224,0.11377,-0.540527,0.84668,12021626224,-0.4375,0,-0.0625,12021626224,-0.235535,-0.159607,0.353516,0.891052,-0.5661,-0.118181,0.78973
12021642463,-2,0,0,-4,-13,8,-1,-2,12021626224,0.11377,-0.540527,0.84668,12021626224,-0.4375,0,-0.0625,12021626224,-0.235535,-0.159607,0.353516,0.891052,-0.5661,-0.118181,0.78973
12021642463,1,-3,-3,-1,5,27,1,0,12021648705,0.113281,-0.543457,0.854492,12021648705,0.8125,0.375,0.3125,12021648705,-0.235596,-0.159546,0.353516,0.891052,-0.566166,-0.118028,0.789695
12021664343,-4,2,0,6,-2,-23,-5,-2,12021648705,0.113281,-0.543457,0.854492,12021648705,0.8125,0.375,0.3125,12021648705,-0.235596,-0.159546,0.353516,0.891052,-0.566166,-0.118028,0.789695
12021664343,-2,-1,0,8,-3,-9,-1,-1,12021648705,0.113281,-0.543457,0.854492,12021648705,0.8125,0.375,0.3125,12021648705,-0.235596,-0.159546,0.353516,0.891052,-0.566166,-0.118028,0.789695
12021665074,-3,-5,-1,2,14,-2,-2,-6,12021648705,0.113281,-0.543457,0.854492,12021648705,0.8125,0.375,0.3125,12021648705,-0.235596,-0.159546,0.353516,0.891052,-0.566166,-0.118028,0.789695
12021665074,-1,1,-1,-4,-8,-8,-3,4,12021671173,0.115234,-0.536621,0.847656,12021671173,0.8125,-0.125,0.1875,12021671173,-0.235596,-0.159546,0.353577,0.891052,-0.566182,-0.117999,0.789834
12021679294,-3,-4,-5,-16,1,10,7,-2,12021671173,0.115234,-0.536621,0.847656,12021671173,0.8125,-0.125,0.1875,12021671173,-0.235596,-0.159546,0.353577,0.891052,-0.566182,-0.117999,0.789834
12021679294,1,1,3,11,-2,-6,-7,2,12021671173,0.115234,-0.536621,0.847656,12021671173,0.8125,-0.125,0.1875,12021671173,-0.235596,-0.159546,0.353577,0.891052,-0.566182,-0.117999,0.789834
12021680014,2,2,-4,-4,-7,-5,-4,-4,12021671173,0.115234,-0.536621,0.847656,12021671173,0.8125,-0.125,0.1875,12021671173,-0.235596,-0.159546,0.353577,0.891052,-0.566182,-0.117999,0.789834
12021680014,-3,1,1,5,-11,-7,-1,-2,12021686230,0.121582,-0.533203,0.841309,12021686230,-0.5625,0.1875,0.375,12021686230,-0.235535,-0.159546,0.353516,0.891052,-0.566042,-0.118071,0.789682
12021701609,-3,-4,-5,-7,14,22,0,-2,12021686230,0.121582,-0.533203,0.841309,12021686230,-0.5625,0.1875,0.375,12021686230,-0.235535,-0.159546,0.353516,0.891052,-0.566042,-0.118071,0.789682
12021701609,2,-2,-1,-6,27,7,2,1,12021686230,0.121582,-0.533203,0.841309,12021686230,-0.5625,0.1875,0.375,12021686230,-0.235535,-0.159546,0.353516,0.891052,-0.566042,-0.118071,0.789682
12021702386,0,0,3,7,-31,-4,6,4,12021686230,0.121582,-0.533203,0.841309,12021686230,-0.5625,0.1875,0.375,12021686230,-0.235535,-0.159546,0.353516,0.891052,-0.566042,-0.118071,0.789682
12021702386,2,0,2,3,-2,7,-6,-3,12021708724,0.119141,-0.543457,0.841797,12021708724,-1.3125,0.0625,0.0625,12021708724,-0.23584,-0.159668,0.353516,0.890991,-0.566751,-0.118053,0.789817
12021724205,-4,-1,-2,2,-12,-15,-4,-2,12021708724,0.119141,-0.543457,0.841797,12021708724,-1.3125,0.0625,0.0625,12021708724,-0.23584,-0.159668,0.353516,0.890991,-0.566751,-0.118053,0.789817
12021724205,-4,-3,-3,-11,-6,-11,-2,-4,12021708724,0.119141,-0.543457,0.841797,12021708724,-1.3125,0.0625,0.0625,12021708724,-0.23584,-0.159668,0.353516,0.890991,-0.566751,-0.118053,0.789817
12021724927,-4,-1,-1,-7,-11,-5,-2,0,12021708724,0.119141,-0.543457,0.841797,12021708724,-1.3125,0.0625,0.0625,12021708724,-0.23584,-0.159668,0.353516,0.890991,-0.566751,-0.118053,0.789817
12021724927,0,-1,-1,-1,12,0,3,1,12021731174,0.128906,-0.544434,0.848633,12021731174,-0.3125,-0.125,-0.125,12021731174,-0.23584,-0.159668,0.353516,0.890991,-0.566751,-0.118053,0.789817
12021738496,3,1,4,14,0,-1,2,2,12021731174,0.128906,-0.544434,0.848633,12021731174,-0.3125,-0.125,-0.125,12021731174,-0.23584,-0.159668,0.353516,0.890991,-0.566751,-0.118053,0.789817
12021738496,1,-2,-2,-4,-2,15,-6,-5,12021731174,0.128906,-0.544434,0.848633,12021731174,-0.3125,-0.125,-0.125,12021731174,-0.23584,-0.159668,0.353516,0.890991,-0.566751,-0.118053,0.789817
12021746725,1,5,1,-3,-7,-10,-1,1,12021731174,0.128906,-0.544434,0.848633,12021731174,-0.3125,-0.125,-0.125,12021731174,-0.23584,-0.159668,0.353516,0.890991,-0.566751,-0.118053,0.789817
12021746725,-1,-3,1,4,9,-2,-3,-5,12021747437,0.122559,-0.535156,0.848633,12021747437,-1,-0.3125,-0.5,12021747437,-0.23584,-0.159729,0.353516,0.890991,-0.566809,-0.118163,0.789865
12021761675,-5,-5,-2,-8,3,8,-1,1,12021747437,0.122559,-0.535156,0.848633,12021747437,-1,-0.3125,-0.5,12021747437,-0.23584,-0.159729,0.353516,0.890991,-0.566809,-0.118163,0.789865
12021761675,5,1,0,2,-4,4,10,3,12021747437,0.122559,-0.535156,0.848633,12021747437,-1,-0.3125,-0.5,12021747437,-0.23584,-0.159729,0.353516,0.890991,-0.566809,-0.118163,0.789865
12021762463,-3,2,1,9,27,-2,-6,-3,12021747437,0.122559,-0.535156,0.848633,12021747437,-1,-0.3125,-0.5,12021747437,-0.23584,-0.159729,0.353516,0.890991,-0.566809,-0.118163,0.789865
12021762463,-2,3,1,0,-5,6,2,-3,12021768465,0.119141,-0.539551,0.842285,12021768465,0.0625,-0.25,-0.5,12021768465,-0.23584,-0.159729,0.353516,0.890991,-0.566809,-0.118163,0.789865
12021784121,2,-10,-5,-10,-18,-13,-6,-2,12021768465,0.119141,-0.539551,0.842285,12021768465,0.0625,-0.25,-0.5,12021768465,-0.23584,-0.159729,0.353516,0.890991,-0.566809,-0.118163,0.789865
12021784121,-3,-3,-1,0,-2,-2,2,1,12021768465,0.119141,-0.539551,0.842285,12021768465,0.0625,-0.25,-0.5,12021768465,-0.23584,-0.159729,0.353516,0.890991,-0.566809,-0.118163,0.789865
12021784915,14,-2,-2,-3,-7,10,-3,2,12021768465,0.119141,-0.539551,0.842285,12021768465,0.0625,-0.25,-0.5,12021768465,-0.23584,-0.159729,0.353516,0.890991,-0.566809,-0.118163,0.789865
12021784915,-23,-3,1,6,27,-29,-6,-5,12021790966,0.116211,-0.539062,0.841797,12021790966,1.0625,-0.25,-0.125,12021790966,-0.235657,-0.159668,0.353516,0.891052,-0.566405,-0.118203,0.789806
12021798524,2,2,0,-3,-4,27,-2,-5,12021790966,0.116211,-0.539062,0.841797,12021790966,1.0625,-0.25,-0.125,12021790966,-0.235657,-0.159668,0.353516,0.891052,-0.566405,-0.118203,0.789806
12021798524,3,-3,0,2,-9,-13,3,0,12021790966,0.116211,-0.539062,0.841797,12021790966,1.0625,-0.25,-0.125,12021790966,-0.235657,-0.159668,0.353516,0.891052,-0.566405,-0.118203,0.789806
12021806677,-1,0,-1,-3,5,2,2,2,12021790966,0.116211,-0.539062,0.841797,12021790966,1.0625,-0.25,-0.125,12021790966,-0.235657,-0.159668,0.353516,0.891052,-0.566405,-0.118203,0.789806
12021806677,5,1,-1,0,2,3,1,2,12021807435,0.121582,-0.526367,0.844238,12021807435,1.1875,0.375,0.375,12021807435,-0.235413,-0.159485,0.353577,0.891113,-0.565778,-0.118039,0.789775
12021821666,-3,-1,-2,-1,8,4,-3,-3,12021807435,0.121582,-0.526367,0.844238,12021807435,1.1875,0.375,0.375,12021807435,-0.235413,-0.159485,0.353577,0.891113,-0.565778,-0.118039,0.789775
12021821666,-3,0,0,-5,-15,-9,-9,-3,12021807435,0.121582,-0.526367,0.844238,12021807435,1.1875,0.375,0.375,12021807435,-0.235413,-0.159485,0.353577,0.891113,-0.565778,-0.118039,0.789775
12021822398,-2,-1,0,0,15,-4,-1,-2,12021807435,0.121582,-0.526367,0.844238,12021807435,1.1875,0.375,0.375,12021807435,-0.235413,-0.159485,0.353577,0.891113,-0.565778,-0.118039,0.789775
12021822398,1,-2,-3,-2,-20,-12,4,-1,12021828469,0.117676,-0.529785,0.842285,12021828469,-0.1875,0.25,0.125,12021828469,-0.235413,-0.159485,0.353577,0.891113,-0.565778,-0.118039,0.789775
12021844130,-2,1,-3,-10,-4,1,0,0,12021828469,0.117676,-0.529785,0.842285,12021828469,-0.1875,0.25,0.125,12021828469,-0.235413,-0.159485,0.353577,0.891113,-0.565778,-0.118039,0.789775
12021844130,3,1,3,13,26,-10,-3,0,12021828469,0.117676,-0.529785,0.842285,12021828469,-0.1875,0.25,0.125,12021828469,-0.235413,-0.159485,0.353577,0.891113,-0.565778,-0.118039,0.789775
12021844905,-4,-1,-2,8,4,7,1,-1,12021828469,0.117676,-0.529785,0.842285,12021828469,-0.1875,0.25,0.125,12021828469,-0.235413,-0.159485,0.353577,0.891113,-0.565778,-0.118039,0.789775
12021844905,3,-1,-2,-4,-11,-2,-1,2,12021851035,0.115723,-0.537109,0.853027,12021851035,-0.625,-0.1875,0,12021851035,-0.235413,-0.159485,0.353577,0.891113,-0.565778,-0.118039,0.789775
12021858612,-2,-1,-2,-1,40,12,2,-2,12021851035,0.115723,-0.537109,0.853027,12021851035,-0.625,-0.1875,0,12021851035,-0.235413,-0.159485,0.353577,0.891113,-0.565778,-0.118039,0.789775
12021858612,-1,0,-4,-10,-35,-17,-2,-2,12021851035,0.115723,-0.537109,0.853027,12021851035,-0.625,-0.1875,0,12021851035,-0.235413,-0.159485,0.353577,0.891113,-0.565778,-0.118039,0.789775
12021866830,-7,-3,-2,-6,2,-12,-4,-3,12021851035,0.115723,-0.537109,0.853027,12021851035,-0.625,-0.1875,0,12021851035,-0.235413,-0.159485,0.353577,0.891113,-0.565778,-0.118039,0.789775
12021866830,1,0,0,-4,-8,17,0,0,12021867473,0.12207,-0.550781,0.848633,12021867473,0.25,0.3125,0.1875,12021867473,-0.235413,-0.159485,0.353577,0.891113,-0.565778,-0.118039,0.789775
12021881645,0,0,0,6,4,1,6,-2,12021867473,0.12207,-0.550781,0.848633,12021867473,0.25,0.3125,0.1875,12021867473,-0.235413,-0.159485,0.353577,0.891113,-0.565778,-0.118039,0.789775
12021881645,-2,-1,-6,-8,-15,30,3,2,12021867473,0.12207,-0.550781,0.848633,12021867473,0.25,0.3125,0.1875,12021867473,-0.235413,-0.159485,0.353577,0.891113,-0.565778,-0.118039,0.789775
12021882407,-1,-1,1,4,8,-13,-4,-1,12021867473,0.12207,-0.550781,0.848633,12021867473,0.25,0.3125,0.1875,12021867473,-0.235413,-0.159485,0.353577,0.891113,-0.565778,-0.118039,0.789775
12021882407,2,-2,1,4,20,10,-5,-5,12021888527,0.121094,-0.543457,0.847168,12021888527,-1.4375,0.8125,-0.375,12021888527,-0.235718,-0.159546,0.353455,0.891052,-0.566396,-0.11797,0.789584
12021904297,-2,-3,-8,-24,-78,-23,-3,-1,12021888527,0.121094,-0.543457,0.847168,12021888527,-1.4375,0.8125,-0.375,12021888527,-0.235718,-0.159546,0.353455,0.891052,-0.566396,-0.11797,0.789584
12021904297,0,0,4,9,51,-8,-2,0,12021888527,0.121094,-0.543457,0.847168,12021888527,-1.4375,0.8125,-0.375,12021888527,-0.235718,-0.159546,0.353455,0.891052,-0.566396,-0.11797,0.789584
12021905007,-6,-4,-7,-13,-70,-9,-5,9,12021888527,0.121094,-0.543457,0.847168,12021888527,-1.4375,0.8125,-0.375,12021888527,-0.235718,-0.159546,0.353455,0.891052,-0.566396,-0.11797,0.789584
12021905007,0,0,0,0,21,13,2,-2,12021911179,0.125,-0.539551,0.827637,12021911179,-0.375,-0.875,-3.9375,12021911179,-0.235657,-0.159973,0.352844,0.891235,-0.566584,-0.119129,0.788612
12021927594,-2,3,7,17,20,-9,-3,1,12021911179,0.125,-0.539551,0.827637,12021911179,-0.375,-0.875,-3.9375,12021911179,-0.235657,-0.159973,0.352844,0.891235,-0.566584,-0.119129,0.788612
12021927594,-2,-3,-3,-4,1,1,-2,-5,12021911179,0.125,-0.539551,0.827637,12021911179,-0.375,-0.875,-3.9375,12021911179,-0.235657,-0.159973,0.352844,0.891235,-0.566584,-0.119129,0.788612
12021928246,0,0,0,-3,27,-7,-1,-3,12021911179,0.125,-0.539551,0.827637,12021911179,-0.375,-0.875,-3.9375,12021911179,-0.235657,-0.159973,0.352844,0.891235,-0.566584,-0.119129,0.788612
12021928246,0,-1,-1,5,-7,-9,-2,2,12021928989,0.128906,-0.529297,0.84668,12021928989,0.625,-2.625,-5.3125,12021928989,-0.235168,-0.160583,0.352112,0.891541,-0.566096,-0.121017,0.787472
12021941019,0,-1,3,-3,-1,16,6,2,12021928989,0.128906,-0.529297,0.84668,12021928989,0.625,-2.625,-5.3125,12021928989,-0.235168,-0.160583,0.352112,0.891541,-0.566096,-0.121017,0.787472
12021941019,-1,-3,-6,-8,-5,-26,-10,-3,12021928989,0.128906,-0.529297,0.84668,12021928989,0.625,-2.625,-5.3125,12021928989,-0.235168,-0.160583,0.352112,0.891541,-0.566096,-0.121017,0.787472
12021949369,0,1,4,6,4,12,3,-2,12021928989,0.128906,-0.529297,0.84668,12021928989,0.625,-2.625,-5.3125,12021928989,-0.235168,-0.160583,0.352112,0.891541,-0.566096,-0.121017,0.787472
12021949369,-1,-3,-4,-1,-12,-28,-5,-1,12021950038,0.128906,-0.535156,0.870117,12021950038,-5.3125,-0.125,-1.625,12021950038,-0.235718,-0.16095,0.351746,0.891479,-0.56743,-0.12144,0.787026
12021964349,0,2,0,-1,7,26,1,-2,12021950038,0.128906,-0.535156,0.870117,12021950038,-5.3125,-0.125,-1.625,12021950038,-0.235718,-0.16095,0.351746,0.891479,-0.56743,-0.12144,0.787026
12021964349,-3,-1,-1,-6,-3,-4,-2,-1,12021950038,0.128906,-0.535156,0.870117,12021950038,-5.3125,-0.125,-1.625,12021950038,-0.235718,-0.16095,0.351746,0.891479,-0.56743,-0.12144,0.787026
12021964941,1,-1,-2,-2,-10,3,0,-2,12021950038,0.128906,-0.535156,0.870117,12021950038,-5.3125,-0.125,-1.625,12021950038,-0.235718,-0.16095,0.351746,0.891479,-0.56743,-0.12144,0.787026
12021964941,0,-4,-4,-6,-7,-22,-5,-2,12021971230,0.101074,-0.571777,0.853027,12021971230,-2.3125,0.125,1.875,12021971230,-0.23645,-0.160828,0.35199,0.891174,-0.568742,-0.120486,0.787498
12021987518,-2,2,-1,7,28,12,2,-1,12021971230,0.101074,-0.571777,0.853027,12021971230,-2.3125,0.125,1.875,12021971230,-0.23645,-0.160828,0.35199,0.891174,-0.568742,-0.120486,0.787498
12021987518,-1,-1,0,2,-31,12,-1,-2,12021971230,0.101074,-0.571777,0.853027,12021971230,-2.3125,0.125,1.875,12021971230,-0.23645,-0.160828,0.35199,0.891174,-0.568742,-0.120486,0.787498
12021988167,0,-1,-3,-9,-22,-30,-1,0,12021971230,0.101074,-0.571777,0.853027,12021971230,-2.3125,0.125,1.875,12021971230,-0.23645,-0.160828,0.35199,0.891174,-0.568742,-0.120486,0.787498
12021988167,-1,1,-1,3,51,38,3,-1,12021988986,0.112793,-0.552246,0.851074,12021988986,5.1875,-1.375,1.4375,12021988986,-0.235779,-0.160583,0.352478,0.891235,-0.567309,-0.120312,0.788291
12022001252,-1,-1,1,-1,-22,-18,0,1,12021988986,0.112793,-0.552246,0.851074,12021988986,5.1875,-1.375,1.4375,12021988986,-0.235779,-0.160583,0.352478,0.891235,-0.567309,-0.120312,0.788291
12022001252,0,-2,0,-3,0,-3,-1,4,12021988986,0.112793,-0.552246,0.851074,12021988986,5.1875,-1.375,1.4375,12021988986,-0.235779,-0.160583,0.352478,0.891235,-0.567309,-0.120312,0.788291
12022009316,0,0,-3,-5,6,-4,-4,-8,12021988986,0.112793,-0.552246,0.851074,12021988986,5.1875,-1.375,1.4375,12021988986,-0.235779,-0.160583,0.352478,0.891235,-0.567309,-0.120312,0.788291
12022009316,-2,-2,0,2,-6,21,2,0,12022010048,0.121094,-0.513672,0.842285,12022010048,4.5625,-2.375,-0.125,12022010048,-0.23468,-0.160645,0.352661,0.891418,-0.565267,-0.121174,0.788597
12022024287,-1,-3,-4,0,-5,-55,-10,-4,12022010048,0.121094,-0.513672,0.842285,12022010048,4.5625,-2.375,-0.125,12022010048,-0.23468,-0.160645,0.352661,0.891418,-0.565267,-0.121174,0.788597
12022024287,-2,0,0,1,-3,32,10,2,12022010048,0.121094,-0.513672,0.842285,12022010048,4.5625,-2.375,-0.125,12022010048,-0.23468,-0.160645,0.352661,0.891418,-0.565267,-0.121174,0.788597
12022024951,1,-1,-1,-1,0,3,2,-1,12022010048,0.121094,-0.513672,0.842285,12022010048,4.5625,-2.375,-0.125,12022010048,-0.23468,-0.160645,0.352661,0.891418,-0.565267,-0.121174,0.788597
12022024951,0,2,-1,1,-5,3,-1,-2,12022031061,0.12207,-0.518066,0.844238,12022031061,-1.75,-1.5625,0,12022031061,-0.23468,-0.160889,0.352722,0.891357,-0.56549,-0.121564,0.788899
12022047504,1,-2,0,-7,5,1,0,0,12022031061,0.12207,-0.518066,0.844238,12022031061,-1.75,-1.5625,0,12022031061,-0.23468,-0.160889,0.352722,0.891357,-0.56549,-0.121564,0.788899
12022047504,-1,1,-1,4,-1,-29,-9,1,12022031061,0.12207,-0.518066,0.844238,12022031061,-1.75,-1.5625,0,12022031061,-0.23468,-0.160889,0.352722,0.891357,-0.56549,-0.121564,0.788899
12022048170,-1,-3,-1,-5,29,29,7,-5,12022031061,0.12207,-0.518066,0.844238,12022031061,-1.75,-1.5625,0,12022031061,-0.23468,-0.160889,0.352722,0.891357,-0.56549,-0.121564,0.788899
12022048170,1,-2,2,-2,-34,-22,-2,2,12022048995,0.121582,-0.547363,0.856445,12022048995,-3.125,-0.8125,-0.4375,12022048995,-0.235168,-0.161194,0.3526,0.891235,-0.566685,-0.121783,0.788914
12022069998,-1,-2,-2,10,12,12,-2,1,12022048995,0.121582,-0.547363,0.856445,12022048995,-3.125,-0.8125,-0.4375,12022048995,-0.235168,-0.161194,0.3526,0.891235,-0.566685,-0.121783,0.788914
12022069998,0,1,-1,0,2,-8,-1,2,12022048995,0.121582,-0.547363,0.856445,12022048995,-3.125,-0.8125,-0.4375,12022048995,-0.235168,-0.161194,0.3526,0.891235,-0.566685,-0.121783,0.788914
12022070658,-1,0,2,11,2,9,-2,0,12022048995,0.121582,-0.547363,0.856445,12022048995,-3.125,-0.8125,-0.4375,12022048995,-0.235168,-0.161194,0.3526,0.891235,-0.566685,-0.121783,0.788914
12022070658,-1,0,-1,-9,-23,-11,-2,-4,12022071490,0.123535,-0.546387,0.848633,12022071490,-0.25,-0.625,-0.3125,12022071490,-0.235168,-0.161194,0.3526,0.891235,-0.566685,-0.121783,0.788914
12022084197,4,-1,-2,-7,4,-4,-2,0,12022071490,0.123535,-0.546387,0.848633,12022071490,-0.25,-0.625,-0.3125,12022071490,-0.235168,-0.161194,0.3526,0.891235,-0.566685,-0.121783,0.788914
12022084197,-10,3,2,11,-2,-8,1,0,12022071490,0.123535,-0.546387,0.848633,12022071490,-0.25,-0.625,-0.3125,12022071490,-0.235168,-0.161194,0.3526,0.891235,-0.566685,-0.121783,0.788914
12022085040,-2,-1,-5,-7,18,3,-1,-2,12022071490,0.123535,-0.546387,0.848633,12022071490,-0.25,-0.625,-0.3125,12022071490,-0.235168,-0.161194,0.3526,0.891235,-0.566685,-0.121783,0.788914
12022085040,26,1,0,3,-2,-5,-1,2,12022091091,0.128906,-0.538086,0.852051,12022091091,1.4375,-0.25,-0.25,12022091091,-0.234863,-0.161194,0.3526,0.891357,-0.566116,-0.12204,0.788905
12022107527,-36,-11,0,-3,-7,3,-1,-4,12022091091,0.128906,-0.538086,0.852051,12022091091,1.4375,-0.25,-0.25,12022091091,-0.234863,-0.161194,0.3526,0.891357,-0.566116,-0.12204,0.788905
12022107527,28,0,0,-3,-9,15,-1,-2,12022091091,0.128906,-0.538086,0.852051,12022091091,1.4375,-0.25,-0.25,12022091091,-0.234863,-0.161194,0.3526,0.891357,-0.566116,-0.12204,0.788905
12022108217,-12,9,-1,-4,-15,-28,-2,1,12022091091,0.128906,-0.538086,0.852051,12022091091,1.4375,-0.25,-0.25,12022091091,-0.234863,-0.161194,0.3526,0.891357,-0.566116,-0.12204,0.788905
12022108217,-7,-15,-4,-3,19,14,3,-7,12022108963,0.130371,-0.54248,0.845703,12022108963,0.0625,0.3125,0.25,12022108963,-0.234863,-0.161255,0.3526,0.891357,-0.566174,-0.122149,0.788954
12022129974,6,1,-2,2,10,3,3,1,12022108963,0.130371,-0.54248,0.845703,12022108963,0.0625,0.3125,0.25,12022108963,-0.234863,-0.161255,0.3526,0.891357,-0.566174,-0.122149,0.788954
12022129974,-6,-3,-4,-5,2,12,-1,-3,12022108963,0.130371,-0.54248,0.845703,12022108963,0.0625,0.3125,0.25,12022108963,-0.234863,-0.161255,0.3526,0.891357,-0.566174,-0.122149,0.788954
12022130700,2,0,1,2,-16,-4,-1,3,12022108963,0.130371,-0.54248,0.845703,12022108963,0.0625,0.3125,0.25,12022108963,-0.234863,-0.161255,0.3526,0.891357,-0.566174,-0.122149,0.788954
12022130700,1,4,0,13,13,1,0,2,12022131467,0.119141,-0.541504,0.847168,12022131467,0.5,0.25,0.8125,12022131467,-0.234863,-0.161255,0.3526,0.891357,-0.566174,-0.122149,0.788954
12022144281,3,2,-1,-2,0,-6,-5,-2,12022131467,0.119141,-0.541504,0.847168,12022131467,0.5,0.25,0.8125,12022131467,-0.234863,-0.161255,0.3526,0.891357,-0.566174,-0.122149,0.788954
12022144281,-7,-2,-1,-3,-8,-12,4,-1,12022131467,0.119141,-0.541504,0.847168,12022131467,0.5,0.25,0.8125,12022131467,-0.234863,-0.161255,0.3526,0.891357,-0.566174,-0.122149,0.788954
12022144944,3,1,-3,-3,14,6,-5,-2,12022131467,0.119141,-0.541504,0.847168,12022131467,0.5,0.25,0.8125,12022131467,-0.234863,-0.161255,0.3526,0.891357,-0.566174,-0.122149,0.788954
12022144944,-10,-1,-3,-3,-7,-1,0,-1,12022151290,0.117676,-0.539551,0.847168,12022151290,0.0625,0,0.5,12022151290,-0.234863,-0.161255,0.3526,0.891357,-0.566174,-0.122149,0.788954
12022167416,1,0,0,-2,-10,7,0,-1,12022151290,0.117676,-0.539551,0.847168,12022151290,0.0625,0,0.5,12022151290,-0.234863,-0.161255,0.3526,0.891357,-0.566174,-0.122149,0.788954
12022167416,0,1,0,-3,2,-2,0,0,12022151290,0.117676,-0.539551,0.847168,12022151290,0.0625,0,0.5,12022151290,-0.234863,-0.161255,0.3526,0.891357,-0.566174,-0.122149,0.788954
12022168154,2,-4,0,-2,-9,4,-1,1,12022151290,0.117676,-0.539551,0.847168,12022151290,0.0625,0,0.5,12022151290,-0.234863,-0.161255,0.3526,0.891357,-0.566174,-0.122149,0.788954
12022168154,-6,1,-1,-4,5,-17,-3,-1,12022168959,0.120605,-0.535645,0.849121,12022168959,0,0.25,0.1875,12022168959,-0.234863,-0.161194,0.3526,0.891357,-0.566116,-0.12204,0.788905
12022189968,1,0,1,11,4,33,4,-2,12022168959,0.120605,-0.535645,0.849121,12022168959,0,0.25,0.1875,12022168959,-0.234863,-0.161194,0.3526,0.891357,-0.566116,-0.12204,0.788905
12022189968,-1,-3,0,3,1,-11,-1,0,12022168959,0.120605,-0.535645,0.849121,12022168959,0,0.25,0.1875,12022168959,-0.234863,-0.161194,0.3526,0.891357,-0.566116,-0.12204,0.788905
12022190762,-2,-4,-1,3,9,-3,-6,-5,12022168959,0.120605,-0.535645,0.849121,12022168959,0,0.25,0.1875,12022168959,-0.234863,-0.161194,0.3526,0.891357,-0.566116,-0.12204,0.788905
12022190762,-6,-1,-1,-9,-26,-16,-6,-3,12022191499,0.126953,-0.524902,0.84375,12022191499,-0.5,-0.125,-0.0625,12022191499,-0.234802,-0.161194,0.3526,0.891357,-0.565993,-0.122083,0.788891
12022204318,7,2,-1,-4,3,13,6,3,12022191499,0.126953,-0.524902,0.84375,12022191499,-0.5,-0.125,-0.0625,12022191499,-0.234802,-0.161194,0.3526,0.891357,-0.565993,-0.122083,0.788891
12022204318,-4,-2,-4,-4,19,-15,1,2,12022191499,0.126953,-0.524902,0.84375,12022191499,-0.5,-0.125,-0.0625,12022191499,-0.234802,-0.161194,0.3526,0.891357,-0.565993,-0.122083,0.788891
12022204967,-1,-4,1,0,-32,0,0,-5,12022191499,0.126953,-0.524902,0.84375,12022191499,-0.5,-0.125,-0.0625,12022191499,-0.234802,-0.161194,0.3526,0.891357,-0.565993,-0.122083,0.788891
12022204967,-2,2,2,7,23,1,-1,0,12022211201,0.128906,-0.537598,0.848633,12022211201,-1.8125,0.1875,-0.125,12022211201,-0.235046,-0.161316,0.352478,0.891296,-0.566545,-0.122167,0.788736
12022227512,2,1,0,-4,-12,-8,-3,-2,12022211201,0.128906,-0.537598,0.848633,12022211201,-1.8125,0.1875,-0.125,12022211201,-0.235046,-0.161316,0.352478,0.891296,-0.566545,-0.122167,0.788736
12022227512,-5,-4,-4,-2,29,12,-5,-7,12022211201,0.128906,-0.537598,0.848633,12022211201,-1.8125,0.1875,-0.125,12022211201,-0.235046,-0.161316,0.352478,0.891296,-0.566545,-0.122167,0.788736
12022228255,1,-2,-2,-8,-27,-5,1,3,12022211201,0.128906,-0.537598,0.848633,12022211201,-1.8125,0.1875,-0.125,12022211201,-0.235046,-0.161316,0.352478,0.891296,-0.566545,-0.122167,0.788736
12022228255,-1,0,-1,8,2,0,-1,0,12022228955,0.126465,-0.544922,0.846191,12022228955,-1.4375,-0.375,0.25,12022228955,-0.235291,-0.16156,0.352478,0.891174,-0.567222,-0.122392,0.788925
12022250011,1,-1,-4,-6,-3,-27,-4,-2,12022228955,0.126465,-0.544922,0.846191,12022228955,-1.4375,-0.375,0.25,12022228955,-0.235291,-0.16156,0.352478,0.891174,-0.567222,-0.122392,0.788925
12022250011,0,-1,2,-1,-25,9,-2,-1,12022228955,0.126465,-0.544922,0.846191,12022228955,-1.4375,-0.375,0.25,12022228955,-0.235291,-0.16156,0.352478,0.891174,-0.567222,-0.122392,0.788925
12022250645,1,1,0,-1,37,2,1,1,12022228955,0.126465,-0.544922,0.846191,12022228955,-1.4375,-0.375,0.25,12022228955,-0.235291,-0.16156,0.352478,0.891174,-0.567222,-0.122392,0.788925
12022250645,-4,1,1,-5,-7,5,0,-1,12022251452,0.126465,-0.548828,0.848145,12022251452,1.0625,-0.875,0.1875,12022251452,-0.235168,-0.161621,0.3526,0.891174,-0.567066,-0.122531,0.789223
12022264214,0,-2,-1,1,3,-19,-8,0,12022251452,0.126465,-0.548828,0.848145,12022251452,1.0625,-0.875,0.1875,12022251452,-0.235168,-0.161621,0.3526,0.891174,-0.567066,-0.122531,0.789223
12022264214,-2,-2,-3,-1,-8,58,15,-2,12022251452,0.126465,-0.548828,0.848145,12022251452,1.0625,-0.875,0.1875,12022251452,-0.235168,-0.161621,0.3526,0.891174,-0.567066,-0.122531,0.789223
12022264942,-3,-1,-2,-8,-6,-24,-7,-7,12022251452,0.126465,-0.548828,0.848145,12022251452,1.0625,-0.875,0.1875,12022251452,-0.235168,-0.161621,0.3526,0.891174,-0.567066,-0.122531,0.789223
12022264942,0,-1,-2,2,28,1,5,6,12022271031,0.12207,-0.533203,0.834961,12022271031,2,-0.875,0,12022271031,-0.234802,-0.161682,0.352661,0.891235,-0.566424,-0.122891,0.789357
12022287337,0,1,3,-2,-27,1,0,2,12022271031,0.12207,-0.533203,0.834961,12022271031,2,-0.875,0,12022271031,-0.234802,-0.161682,0.352661,0.891235,-0.566424,-0.122891,0.789357
12022287337,0,0,-1,-1,5,-16,-6,-4,12022271031,0.12207,-0.533203,0.834961,12022271031,2,-0.875,0,12022271031,-0.234802,-0.161682,0.352661,0.891235,-0.566424,-0.122891,0.789357
12022288148,0,-5,0,6,4,10,3,1,12022271031,0.12207,-0.533203,0.834961,12022271031,2,-0.875,0,12022271031,-0.234802,-0.161682,0.352661,0.891235,-0.566424,-0.122891,0.789357
12022288148,-2,-2,-3,-11,-1,-3,1,-4,12022288977,0.125977,-0.519531,0.843262,12022288977,-0.1875,-1.125,0.1875,12022288977,-0.234558,-0.161804,0.352722,0.891235,-0.566063,-0.123255,0.789537
12022309846,2,1,-2,-4,-8,-11,-3,-1,12022288977,0.125977,-0.519531,0.843262,12022288977,-0.1875,-1.125,0.1875,12022288977,-0.234558,-0.161804,0.352722,0.891235,-0.566063,-0.123255,0.789537
12022309846,-3,-1,-3,-3,-11,-4,-2,0,12022288977,0.125977,-0.519531,0.843262,12022288977,-0.1875,-1.125,0.1875,12022288977,-0.234558,-0.161804,0.352722,0.891235,-0.566063,-0.123255,0.789537
12022310587,-1,0,0,4,17,-9,-3,1,12022288977,0.125977,-0.519531,0.843262,12022288977,-0.1875,-1.125,0.1875,12022288977,-0.234558,-0.161804,0.352722,0.891235,-0.566063,-0.123255,0.789537
12022310587,-4,0,-1,0,-8,-1,0,-2,12022311411,0.126465,-0.539062,0.84375,12022311411,-1.6875,-0.625,0.0625,12022311411,-0.234802,-0.162048,0.352722,0.891174,-0.566764,-0.1235,0.789757
12022324142,-2,-1,1,3,10,4,-1,-2,12022311411,0.126465,-0.539062,0.84375,12022311411,-1.6875,-0.625,0.0625,12022311411,-0.234802,-0.162048,0.352722,0.891174,-0.566764,-0.1235,0.789757
12022324142,0,0,0,-1,-6,-12,-2,-1,12022311411,0.126465,-0.539062,0.84375,12022311411,-1.6875,-0.625,0.0625,12022311411,-0.234802,-0.162048,0.352722,0.891174,-0.566764,-0.1235,0.789757
12022324927,0,1,0,3,9,-8,2,3,12022311411,0.126465,-0.539062,0.84375,12022311411,-1.6875,-0.625,0.0625,12022311411,-0.234802,-0.162048,0.352722,0.891174,-0.566764,-0.1235,0.789757
12022324927,-4,-4,-4,-7,-28,30,-3,-3,12022330964,0.126465,-0.547363,0.847656,12022330964,-0.8125,-0.75,-0.375,12022330964,-0.234802,-0.162048,0.352722,0.891113,-0.56674,-0.123481,0.789727
12022347013,-1,0,-2,-11,2,-50,-6,-3,12022330964,0.126465,-0.547363,0.847656,12022330964,-0.8125,-0.75,-0.375,12022330964,-0.234802,-0.162048,0.352722,0.891113,-0.56674,-0.123481,0.789727
12022347013,-1,-3,1,13,14,20,-1,0,12022330964,0.126465,-0.547363,0.847656,12022330964,-0.8125,-0.75,-0.375,12022330964,-0.234802,-0.162048,0.352722,0.891113,-0.56674,-0.123481,0.789727
12022347824,0,-1,1,-1,-38,3,1,0,12022330964,0.126465,-0.547363,0.847656,12022330964,-0.8125,-0.75,-0.375,12022330964,-0.234802,-0.162048,0.352722,0.891113,-0.56674,-0.123481,0.789727
12022347824,2,-1,-1,-7,10,15,2,0,12022353548,0.120605,-0.54541,0.854004,12022353548,-0.3125,-0.8125,-0.5625,12022353548,-0.234863,-0.162048,0.352722,0.891113,-0.566864,-0.123437,0.789741
12022369875,1,-2,-4,3,27,3,0,-1,12022353548,0.120605,-0.54541,0.854004,12022353548,-0.3125,-0.8125,-0.5625,12022353548,-0.234863,-0.162048,0.352722,0.891113,-0.566864,-0.123437,0.789741
12022369875,0,2,-1,-7,-4,-21,-3,0,12022353548,0.120605,-0.54541,0.854004,12022353548,-0.3125,-0.8125,-0.5625,12022353548,-0.234863,-0.162048,0.352722,0.891113,-0.566864,-0.123437,0.789741
12022370666,-3,-1,-2,3,10,-16,-2,1,12022353548,0.120605,-0.54541,0.854004,12022353548,-0.3125,-0.8125,-0.5625,12022353548,-0.234863,-0.162048,0.352722,0.891113,-0.566864,-0.123437,0.789741
12022370666,-1,-2,-5,-2,-25,-17,-4,-3,12022371456,0.120605,-0.540527,0.854492,12022371456,0.875,-0.1875,-0.0625,12022371456,-0.234863,-0.162048,0.352722,0.891113,-0.566864,-0.123437,0.789741
12022384350,-1,-2,-2,-3,2,8,-6,-5,12022371456,0.120605,-0.540527,0.854492,12022371456,0.875,-0.1875,-0.0625,12022371456,-0.234863,-0.162048,0.352722,0.891113,-0.566864,-0.123437,0.789741
12022384350,0,0,1,7,12,0,2,0,12022371456,0.120605,-0.540527,0.854492,12022371456,0.875,-0.1875,-0.0625,12022371456,-0.234863,-0.162048,0.352722,0.891113,-0.566864,-0.123437,0.789741
12022384941,-2,-3,-4,-5,-6,4,-3,-3,12022371456,0.120605,-0.540527,0.854492,12022371456,0.875,-0.1875,-0.0625,12022371456,-0.234863,-0.162048,0.352722,0.891113,-0.566864,-0.123437,0.789741
12022384941,0,1,1,4,7,1,-1,2,12022391142,0.117188,-0.527832,0.844238,12022391142,0.8125,-0.125,-0.3125,12022391142,-0.234802,-0.161987,0.352722,0.891174,-0.566706,-0.123391,0.789709
12022414877,-1,-1,1,3,8,-6,5,2,12022391142,0.117188,-0.527832,0.844238,12022391142,0.8125,-0.125,-0.3125,12022391142,-0.234802,-0.161987,0.352722,0.891174,-0.566706,-0.123391,0.789709
12022414877,-1,-1,-3,-4,-34,-5,-6,-3,12022391142,0.117188,-0.527832,0.844238,12022391142,0.8125,-0.125,-0.3125,12022391142,-0.234802,-0.161987,0.352722,0.891174,-0.566706,-0.123391,0.789709
12022415583,-1,-3,-4,-4,9,-6,0,-2,12022391142,0.117188,-0.527832,0.844238,12022391142,0.8125,-0.125,-0.3125,12022391142,-0.234802,-0.161987,0.352722,0.891174,-0.566706,-0.123391,0.789709
12022415583,-2,-3,-3,-6,1,0,-4,-4,12022416521,0.116211,-0.540039,0.854492,12022416521,-0.875,0.1875,-0.0625,12022416521,-0.234802,-0.161987,0.352722,0.891174,-0.566706,-0.123391,0.789709
12022430027,-1,0,1,3,-5,9,0,0,12022416521,0.116211,-0.540039,0.854492,12022416521,-0.875,0.1875,-0.0625,12022416521,-0.234802,-0.161987,0.352722,0.891174,-0.566706,-0.123391,0.789709
12022430027,-3,-3,0,4,1,-13,-2,-2,12022416521,0.116211,-0.540039,0.854492,12022416521,-0.875,0.1875,-0.0625,12022416521,-0.234802,-0.161987,0.352722,0.891174,-0.566706,-0.123391,0.789709
12022430709,-1,0,2,8,6,17,3,0,12022416521,0.116211,-0.540039,0.854492,12022416521,-0.875,0.1875,-0.0625,12022416521,-0.234802,-0.161987,0.352722,0.891174,-0.566706,-0.123391,0.789709
12022430709,-3,-1,-3,-4,5,-24,-3,-1,12022431463,0.123047,-0.552246,0.852051,12022431463,-1.875,-0.25,-0.3125,12022431463,-0.235168,-0.16217,0.352661,0.891052,-0.567556,-0.123448,0.789739
12022444387,0,-2,-2,-1,-25,-8,-2,-1,12022431463,0.123047,-0.552246,0.852051,12022431463,-1.875,-0.25,-0.3125,12022431463,-0.235168,-0.16217,0.352661,0.891052,-0.567556,-0.123448,0.789739
12022444387,-1,-2,-3,-12,9,-2,-4,0,12022431463,0.123047,-0.552246,0.852051,12022431463,-1.875,-0.25,-0.3125,12022431463,-0.235168,-0.16217,0.352661,0.891052,-0.567556,-0.123448,0.789739
12022445058,-2,-2,-1,2,0,13,1,1,12022431463,0.123047,-0.552246,0.852051,12022431463,-1.875,-0.25,-0.3125,12022431463,-0.235168,-0.16217,0.352661,0.891052,-0.567556,-0.123448,0.789739
12022445058,1,-2,2,4,-6,-7,-2,-1,12022451153,0.128418,-0.545898,0.842285,12022451153,-0.8125,-0.625,-1.25,12022451153,-0.235291,-0.162415,0.352478,0.891052,-0.567985,-0.123887,0.789546
12022467526,0,1,-1,1,9,12,1,-1,12022451153,0.128418,-0.545898,0.842285,12022451153,-0.8125,-0.625,-1.25,12022451153,-0.235291,-0.162415,0.352478,0.891052,-0.567985,-0.123887,0.789546
12022467526,0,-1,-2,-5,-14,-19,-4,0,12022451153,0.128418,-0.545898,0.842285,12022451153,-0.8125,-0.625,-1.25,12022451153,-0.235291,-0.162415,0.352478,0.891052,-0.567985,-0.123887,0.789546
12022468157,-2,-2,-2,-4,10,17,0,2,12022451153,0.128418,-0.545898,0.842285,12022451153,-0.8125,-0.625,-1.25,12022451153,-0.235291,-0.162415,0.352478,0.891052,-0.567985,-0.123887,0.789546
12022468157,-3,-2,-1,-1,-5,9,1,-11,12022469008,0.128418,-0.535156,0.849609,12022469008,-0.9375,-1.375,-2,12022469008,-0.235229,-0.162781,0.352173,0.891113,-0.56815,-0.124753,0.789161
12022490020,-4,-1,-1,-1,-12,6,-2,6,12022469008,0.128418,-0.535156,0.849609,12022469008,-0.9375,-1.375,-2,12022469008,-0.235229,-0.162781,0.352173,0.891113,-0.56815,-0.124753,0.789161
12022490020,-2,-2,0,-7,-13,5,2,-1,12022469008,0.128418,-0.535156,0.849609,12022469008,-0.9375,-1.375,-2,12022469008,-0.235229,-0.162781,0.352173,0.891113,-0.56815,-0.124753,0.789161
12022490669,-1,-1,-3,-2,-6,-15,-4,-2,12022469008,0.128418,-0.535156,0.849609,12022469008,-0.9375,-1.375,-2,12022469008,-0.235229,-0.162781,0.352173,0.891113,-0.56815,-0.124753,0.789161
12022490669,0,1,3,7,9,-4,3,0,12022491473,0.123535,-0.539551,0.83252,12022491473,-1.4375,-3.125,-2.4375,12022491473,-0.235229,-0.163452,0.351868,0.891113,-0.568704,-0.126103,0.789005
12022504327,-2,-1,-3,-5,8,6,-6,-8,12022491473,0.123535,-0.539551,0.83252,12022491473,-1.4375,-3.125,-2.4375,12022491473,-0.235229,-0.163452,0.351868,0.891113,-0.568704,-0.126103,0.789005
12022504327,-2,-2,1,1,8,-11,-1,2,12022491473,0.123535,-0.539551,0.83252,12022491473,-1.4375,-3.125,-2.4375,12022491473,-0.235229,-0.163452,0.351868,0.891113,-0.568704,-0.126103,0.789005
12022505055,-1,-1,0,-3,-16,24,-1,-3,12022491473,0.123535,-0.539551,0.83252,12022491473,-1.4375,-3.125,-2.4375,12022491473,-0.235229,-0.163452,0.351868,0.891113,-0.568704,-0.126103,0.789005
12022505055,-2,-1,-1,-2,2,-22,-2,2,12022511236,0.119141,-0.549805,0.845703,12022511236,-2.5,-3.75,-3.4375,12022511236,-0.235413,-0.164246,0.35144,0.891113,-0.569712,-0.127602,0.788714
12022527372,-1,-2,-3,-1,-11,7,2,-2,12022511236,0.119141,-0.549805,0.845703,12022511236,-2.5,-3.75,-3.4375,12022511236,-0.235413,-0.164246,0.35144,0.891113,-0.569712,-0.127602,0.788714
12022527372,-1,1,1,1,13,6,1,1,12022511236,0.119141,-0.549805,0.845703,12022511236,-2.5,-3.75,-3.4375,12022511236,-0.235413,-0.164246,0.35144,0.891113,-0.569712,-0.127602,0.788714
12022528180,0,1,1,-2,10,-3,-1,-3,12022511236,0.119141,-0.549805,0.845703,12022511236,-2.5,-3.75,-3.4375,12022511236,-0.235413,-0.164246,0.35144,0.891113,-0.569712,-0.127602,0.788714
12022528180,0,-2,-5,-8,4,29,-2,0,12022528949,0.137695,-0.541504,0.843262,12022528949,-2.8125,-3.9375,-1.5625,12022528949,-0.235535,-0.165161,0.351257,0.89093,-0.57071,-0.129187,0.788973
12022549778,2,0,8,23,-19,-19,1,2,12022528949,0.137695,-0.541504,0.843262,12022528949,-2.8125,-3.9375,-1.5625,12022528949,-0.235535,-0.165161,0.351257,0.89093,-0.57071,-0.129187,0.788973
12022549778,-2,-5,-5,-8,-5,-1,0,-3,12022528949,0.137695,-0.541504,0.843262,12022528949,-2.8125,-3.9375,-1.5625,12022528949,-0.235535,-0.165161,0.351257,0.89093,-0.57071,-0.129187,0.788973
12022550500,0,-1,-1,1,36,10,6,2,12022528949,0.137695,-0.541504,0.843262,12022528949,-2.8125,-3.9375,-1.5625,12022528949,-0.235535,-0.165161,0.351257,0.89093,-0.57071,-0.129187,0.788973
12022550500,-4,-5,-6,-13,-31,-17,-11,-5,12022556094,0.137695,-0.558105,0.860352,12022556094,-6.4375,-3.625,-2.3125,12022556094,-0.236206,-0.16626,0.350891,0.890747,-0.572945,-0.130798,0.789098
12022563574,0,0,-4,-11,12,-7,-6,-4,12022556094,0.137695,-0.558105,0.860352,12022556094,-6.4375,-3.625,-2.3125,12022556094,-0.236206,-0.16626,0.350891,0.890747,-0.572945,-0.130798,0.789098
12022563574,-1,1,2,11,-10,-4,1,-2,12022571810,0.131348,-0.555176,0.864746,12022571810,-4.1875,-2.9375,-1,12022571810,-0.236633,-0.166931,0.350769,0.890564,-0.574347,-0.131699,0.789376
12022572536,-2,-1,-2,-5,-12,-1,-5,-4,12022571810,0.131348,-0.555176,0.864746,12022571810,-4.1875,-2.9375,-1,12022571810,-0.236633,-0.166931,0.350769,0.890564,-0.574347,-0.131699,0.789376
12022572536,0,2,3,4,-12,-6,4,2,12022571810,0.131348,-0.555176,0.864746,12022571810,-4.1875,-2.9375,-1,12022571810,-0.236633,-0.166931,0.350769,0.890564,-0.574347,-0.131699,0.789376
12022587370,0,-2,-3,-6,14,22,3,-1,12022571810,0.131348,-0.555176,0.864746,12022571810,-4.1875,-2.9375,-1,12022571810,-0.236633,-0.166931,0.350769,0.890564,-0.574347,-0.131699,0.789376
12022587370,-4,-3,-2,-5,5,-6,-11,-5,12022588203,0.155273,-0.554199,0.851074,12022588203,-3.9375,-0.125,0.75,12022588203,-0.237183,-0.167358,0.350708,0.89032,-0.575756,-0.132025,0.789595
12022588953,1,0,-3,-4,-16,-9,4,-1,12022588203,0.155273,-0.554199,0.851074,12022588203,-3.9375,-0.125,0.75,12022588203,-0.237183,-0.167358,0.350708,0.89032,-0.575756,-0.132025,0.789595
12022588953,0,1,2,5,11,10,3,1,12022588203,0.155273,-0.554199,0.851074,12022588203,-3.9375,-0.125,0.75,12022588203,-0.237183,-0.167358,0.350708,0.89032,-0.575756,-0.132025,0.789595
12022610005,-1,-1,0,-3,-8,-2,-4,-1,12022588203,0.155273,-0.554199,0.851074,12022588203,-3.9375,-0.125,0.75,12022588203,-0.237183,-0.167358,0.350708,0.89032,-0.575756,-0.132025,0.789595
12022610005,-1,0,-1,-4,-2,1,2,0,12022610721,0.157715,-0.57373,0.856934,12022610721,-5.0625,4.375,4,12022610721,-0.238403,-0.167114,0.350891,0.889954,-0.577902,-0.130511,0.789919
12022611400,-1,0,0,5,5,8,0,-1,12022610721,0.157715,-0.57373,0.856934,12022610721,-5.0625,4.375,4,12022610721,-0.238403,-0.167114,0.350891,0.889954,-0.577902,-0.130511,0.789919
12022611400,-1,0,-1,4,2,-6,-2,1,12022610721,0.157715,-0.57373,0.856934,12022610721,-5.0625,4.375,4,12022610721,-0.238403,-0.167114,0.350891,0.889954,-0.577902,-0.130511,0.789919
12022623661,0,0,1,-6,0,1,1,-1,12022610721,0.157715,-0.57373,0.856934,12022610721,-5.0625,4.375,4,12022610721,-0.238403,-0.167114,0.350891,0.889954,-0.577902,-0.130511,0.789919
12022623661,1,-1,0,4,17,19,0,-1,12022631921,0.131836,-0.570312,0.895996,12022631921,-5.8125,10.25,6.75,12022631921,-0.23999,-0.165527,0.351379,0.889648,-0.579614,-0.126202,0.789954
12022632537,-1,-1,0,1,-35,-26,-3,0,12022631921,0.131836,-0.570312,0.895996,12022631921,-5.8125,10.25,6.75,12022631921,-0.23999,-0.165527,0.351379,0.889648,-0.579614,-0.126202,0.789954
12022632537,-1,-1,2,-5,8,9,5,0,12022631921,0.131836,-0.570312,0.895996,12022631921,-5.8125,10.25,6.75,12022631921,-0.23999,-0.165527,0.351379,0.889648,-0.579614,-0.126202,0.789954
12022646916,-1,-1,-3,3,16,-8,-2,-3,12022631921,0.131836,-0.570312,0.895996,12022631921,-5.8125,10.25,6.75,12022631921,-0.23999,-0.165527,0.351379,0.889648,-0.579614,-0.126202,0.789954
12022646916,1,3,1,11,-13,8,4,1,12022647634,0.114746,-0.597168,0.87793,12022647634,-12.375,14.5625,13.3125,12022647634,-0.243347,-0.163391,0.352539,0.888672,-0.584316,-0.119105,0.791142
12022653715,-1,-1,0,6,27,-8,-2,-1,12022647634,0.114746,-0.597168,0.87793,12022647634,-12.375,14.5625,13.3125,12022647634,-0.243347,-0.163391,0.352539,0.888672,-0.584316,-0.119105,0.791142
12022653715,-2,-3,-7,-20,-18,1,-3,-2,12022647634,0.114746,-0.597168,0.87793,12022647634,-12.375,14.5625,13.3125,12022647634,-0.243347,-0.163391,0.352539,0.888672,-0.584316,-0.119105,0.791142
12022670116,0,1,5,4,-10,0,4,2,12022647634,0.114746,-0.597168,0.87793,12022647634,-12.375,14.5625,13.3125,12022647634,-0.243347,-0.163391,0.352539,0.888672,-0.584316,-0.119105,0.791142
12022670116,-1,-1,-1,-2,6,-13,-5,-3,12022670753,0.0917969,-0.674316,0.894531,12022670753,-13.3125,19.5,19.75,12022670753,-0.247986,-0.160278,0.354431,0.887207,-0.590703,-0.108827,0.793239
12022671478,-2,-2,1,-4,-8,10,-3,-1,12022670753,0.0917969,-0.674316,0.894531,12022670753,-13.3125,19.5,19.75,12022670753,-0.247986,-0.160278,0.354431,0.887207,-0.590703,-0.108827,0.793239
12022671478,0,-2,-1,-9,-8,-16,-7,-1,12022670753,0.0917969,-0.674316,0.894531,12022670753,-13.3125,19.5,19.75,12022670753,-0.247986,-0.160278,0.354431,0.887207,-0.590703,-0.108827,0.793239
12022683622,-1,0,-3,-3,28,34,9,4,12022670753,0.0917969,-0.674316,0.894531,12022670753,-13.3125,19.5,19.75,12022670753,-0.247986,-0.160278,0.354431,0.887207,-0.590703,-0.108827,0.793239
12022683622,-3,-2,-6,-15,-48,-17,-8,-5,12022691943,0.0600586,-0.661621,0.905762,12022691943,-5.8125,24.1875,26.6875,12022691943,-0.25177,-0.155396,0.357483,0.885803,-0.594011,-0.0954375,0.796373
12022692526,-2,-1,-3,0,36,-25,-8,-2,12022691943,0.0600586,-0.661621,0.905762,12022691943,-5.8125,24.1875,26.6875,12022691943,-0.25177,-0.155396,0.357483,0.885803,-0.594011,-0.0954375,0.796373
12022692526,0,2,3,13,-10,18,1,0,12022691943,0.0600586,-0.661621,0.905762,12022691943,-5.8125,24.1875,26.6875,12022691943,-0.25177,-0.155396,0.357483,0.885803,-0.594011,-0.0954375,0.796373
12022707501,-1,-4,-3,-4,-6,-8,-3,-3,12022691943,0.0600586,-0.661621,0.905762,12022691943,-5.8125,24.1875,26.6875,12022691943,-0.25177,-0.155396,0.357483,0.885803,-0.594011,-0.0954375,0.796373
12022707501,0,-2,-1,0,15,18,4,2,12022708224,0.0449219,-0.596191,0.87793,12022708224,-7.4375,28.5625,31.3125,12022708224,-0.255737,-0.149658,0.361023,0.884216,-0.596945,-0.080092,0.799914
12022708981,0,-1,0,5,-11,-5,2,-1,12022708224,0.0449219,-0.596191,0.87793,12022708224,-7.4375,28.5625,31.3125,12022708224,-0.255737,-0.149658,0.361023,0.884216,-0.596945,-0.080092,0.799914
12022708981,-3,-1,-4,-4,6,-13,-2,-2,12022708224,0.0449219,-0.596191,0.87793,12022708224,-7.4375,28.5625,31.3125,12022708224,-0.255737,-0.149658,0.361023,0.884216,-0.596945,-0.080092,0.799914
12022730675,-2,2,2,6,-7,4,-1,-1,12022708224,0.0449219,-0.596191,0.87793,12022708224,-7.4375,28.5625,31.3125,12022708224,-0.255737,-0.149658,0.361023,0.884216,-0.596945,-0.080092,0.799914
12022730675,0,-3,-1,2,5,-19,-2,-2,12022731472,0.00244141,-0.61377,0.873535,12022731472,-13.1875,33.625,37.375,12022731472,-0.26123,-0.143005,0.365112,0.882019,-0.602038,-0.0615489,0.804033
12022732217,0,-2,-2,-19,-9,13,0,-1,12022731472,0.00244141,-0.61377,0.873535,12022731472,-13.1875,33.625,37.375,12022731472,-0.26123,-0.143005,0.365112,0.882019,-0.602038,-0.0615489,0.804033
12022732217,-1,0,0,10,4,1,1,1,12022731472,0.00244141,-0.61377,0.873535,12022731472,-13.1875,33.625,37.375,12022731472,-0.26123,-0.143005,0.365112,0.882019,-0.602038,-0.0615489,0.804033
12022743676,0,-1,-1,11,4,-1,-2,-1,12022731472,0.00244141,-0.61377,0.873535,12022731472,-13.1875,33.625,37.375,12022731472,-0.26123,-0.143005,0.365112,0.882019,-0.602038,-0.0615489,0.804033
12022743676,-2,-2,-5,-25,-9,-1,-2,-2,12022752399,-0.0249023,-0.65625,0.879883,12022752399,-14,37.5625,46,12022752399,-0.267639,-0.135437,0.3703,0.879089,-0.608123,-0.0399193,0.809803
12022753134,1,2,8,30,16,0,2,2,12022752399,-0.0249023,-0.65625,0.879883,12022752399,-14,37.5625,46,12022752399,-0.267639,-0.135437,0.3703,0.879089,-0.608123,-0.0399193,0.809803
12022753134,1,-1,-4,-8,-14,-1,-3,-1,12022752399,-0.0249023,-0.65625,0.879883,12022752399,-14,37.5625,46,12022752399,-0.267639,-0.135437,0.3703,0.879089,-0.608123,-0.0399193,0.809803
12022767505,-3,1,1,0,3,-6,0,-1,12022752399,-0.0249023,-0.65625,0.879883,12022752399,-14,37.5625,46,12022752399,-0.267639,-0.135437,0.3703,0.879089,-0.608123,-0.0399193,0.809803
12022767505,-1,-1,3,8,-6,-4,-1,1,12022768237,-0.0463867,-0.641113,0.874512,12022768237,-8.8125,39.875,55.25,12022768237,-0.273376,-0.126709,0.376892,0.875854,-0.611949,-0.0158911,0.817716
12022768983,1,-1,-2,-9,-13,-2,0,0,12022768237,-0.0463867,-0.641113,0.874512,12022768237,-8.8125,39.875,55.25,12022768237,-0.273376,-0.126709,0.376892,0.875854,-0.611949,-0.0158911,0.817716
12022768983,2,-3,-2,-6,3,6,2,0,12022768237,-0.0463867,-0.641113,0.874512,12022768237,-8.8125,39.875,55.25,12022768237,-0.273376,-0.126709,0.376892,0.875854,-0.611949,-0.0158911,0.817716
12022789992,-2,-2,-2,7,-7,-14,-5,-1,12022768237,-0.0463867,-0.641113,0.874512,12022768237,-8.8125,39.875,55.25,12022768237,-0.273376,-0.126709,0.376892,0.875854,-0.611949,-0.0158911,0.817716
12022789992,-1,0,-1,0,5,2,-1,0,12022790737,-0.0668945,-0.616211,0.867676,12022790737,-10.25,44.5,61.0625,12022790737,-0.27948,-0.117065,0.384033,0.872131,-0.615592,0.0104665,0.826186
12022791439,-2,-1,-5,-12,-9,17,5,-2,12022790737,-0.0668945,-0.616211,0.867676,12022790737,-10.25,44.5,61.0625,12022790737,-0.27948,-0.117065,0.384033,0.872131,-0.615592,0.0104665,0.826186
12022791439,-1,-2,1,4,8,-4,-3,1,12022790737,-0.0668945,-0.616211,0.867676,12022790737,-10.25,44.5,61.0625,12022790737,-0.27948,-0.117065,0.384033,0.872131,-0.615592,0.0104665,0.826186
12022803568,-1,-2,-4,-10,-15,-6,-2,-2,12022790737,-0.0668945,-0.616211,0.867676,12022790737,-10.25,44.5,61.0625,12022790737,-0.27948,-0.117065,0.384033,0.872131,-0.615592,0.0104665,0.826186
12022803568,0,1,-1,1,-4,-19,-1,0,12022811896,-0.131836,-0.608887,0.878418,12022811896,-12.1875,49.4375,66.375,12022811896,-0.286255,-0.106079,0.391724,0.86792,-0.619313,0.0401401,0.835029
12022812553,-3,-2,-2,-1,4,11,-6,-3,12022811896,-0.131836,-0.608887,0.878418,12022811896,-12.1875,49.4375,66.375,12022811896,-0.286255,-0.106079,0.391724,0.86792,-0.619313,0.0401401,0.835029
12022812553,0,0,4,17,17,8,0,0,12022811896,-0.131836,-0.608887,0.878418,12022811896,-12.1875,49.4375,66.375,12022811896,-0.286255,-0.106079,0.391724,0.86792,-0.619313,0.0401401,0.835029
12022827540,-1,-2,-5,-14,-16,-21,-3,-4,12022811896,-0.131836,-0.608887,0.878418,12022811896,-12.1875,49.4375,66.375,12022811896,-0.286255,-0.106079,0.391724,0.86792,-0.619313,0.0401401,0.835029
12022827540,0,0,-1,1,6,2,0,1,12022828265,-0.168945,-0.604004,0.871582,12022828265,-8,53.5,71.0625,12022828265,-0.292664,-0.0938721,0.399963,0.863403,-0.621169,0.0720729,0.844398
12022828995,0,-1,-1,4,-8,-1,1,-1,12022828265,-0.168945,-0.604004,0.871582,12022828265,-8,53.5,71.0625,12022828265,-0.292664,-0.0938721,0.399963,0.863403,-0.621169,0.0720729,0.844398
12022828995,0,-1,2,5,4,-5,-2,-1,12022828265,-0.168945,-0.604004,0.871582,12022828265,-8,53.5,71.0625,12022828265,-0.292664,-0.0938721,0.399963,0.863403,-0.621169,0.0720729,0.844398
12022850052,-1,-1,-4,2,-3,-5,-1,0,12022828265,-0.168945,-0.604004,0.871582,12022828265,-8,53.5,71.0625,12022828265,-0.292664,-0.0938721,0.399963,0.863403,-0.621169,0.0720729,0.844398
12022850052,-1,1,-1,-13,4,21,2,-2,12022850664,-0.169434,-0.602051,0.851074,12022850664,-1.3125,57.0625,73.0625,12022850664,-0.298218,-0.0809326,0.408203,0.858948,-0.620659,0.104624,0.853624
12022851536,0,-2,-5,5,9,-3,-3,0,12022850664,-0.169434,-0.602051,0.851074,12022850664,-1.3125,57.0625,73.0625,12022850664,-0.298218,-0.0809326,0.408203,0.858948,-0.620659,0.104624,0.853624
12022851536,-2,0,0,-2,5,0,1,-2,12022850664,-0.169434,-0.602051,0.851074,12022850664,-1.3125,57.0625,73.0625,12022850664,-0.298218,-0.0809326,0.408203,0.858948,-0.620659,0.104624,0.853624
12022863768,-3,-1,-2,-7,-8,-11,-4,-1,12022850664,-0.169434,-0.602051,0.851074,12022850664,-1.3125,57.0625,73.0625,12022850664,-0.298218,-0.0809326,0.408203,0.858948,-0.620659,0.104624,0.853624
12022863768,0,-1,4,13,-2,3,0,0,12022871759,-0.17627,-0.572266,0.833984,12022871759,3.5625,61.25,74.9375,12022871759,-0.30304,-0.0671387,0.416382,0.854553,-0.617934,0.138051,0.862645
12022872511,1,0,-2,-13,-9,-11,-3,-1,12022871759,-0.17627,-0.572266,0.833984,12022871759,3.5625,61.25,74.9375,12022871759,-0.30304,-0.0671387,0.416382,0.854553,-0.617934,0.138051,0.862645
12022872511,-1,1,-1,-3,3,3,1,0,12022871759,-0.17627,-0.572266,0.833984,12022871759,3.5625,61.25,74.9375,12022871759,-0.30304,-0.0671387,0.416382,0.854553,-0.617934,0.138051,0.862645
12022887012,-1,-2,-6,-13,-9,-3,-2,-2,12022871759,-0.17627,-0.572266,0.833984,12022871759,3.5625,61.25,74.9375,12022871759,-0.30304,-0.0671387,0.416382,0.854553,-0.617934,0.138051,0.862645
12022887012,-1,-1,-3,-2,8,1,-2,-2,12022887545,-0.208008,-0.55127,0.827637,12022887545,8.75,67.25,76.125,12022887545,-0.307312,-0.0519409,0.424377,0.850098,-0.612863,0.17339,0.870959
12022893689,-3,-2,-1,-1,0,10,2,0,12022887545,-0.208008,-0.55127,0.827637,12022887545,8.75,67.25,76.125,12022887545,-0.307312,-0.0519409,0.424377,0.850098,-0.612863,0.17339,0.870959
12022893689,-2,0,-5,-13,-6,-5,-1,-1,12022887545,-0.208008,-0.55127,0.827637,12022887545,8.75,67.25,76.125,12022887545,-0.307312,-0.0519409,0.424377,0.850098,-0.612863,0.17339,0.870959
12022910067,-1,-2,-2,1,3,1,-3,-2,12022887545,-0.208008,-0.55127,0.827637,12022887545,8.75,67.25,76.125,12022887545,-0.307312,-0.0519409,0.424377,0.850098,-0.612863,0.17339,0.870959
12022910067,1,-1,2,1,-5,-2,2,-1,12022910738,-0.258789,-0.532227,0.827637,12022910738,9.4375,70.9375,76.125,12022910738,-0.311646,-0.0359497,0.432129,0.845459,-0.607223,0.210096,0.878918
12022911496,-1,2,1,4,-4,-3,1,0,12022910738,-0.258789,-0.532227,0.827637,12022910738,9.4375,70.9375,76.125,12022910738,-0.311646,-0.0359497,0.432129,0.845459,-0.607223,0.210096,0.878918
12022911496,-2,-2,-4,1,-7,-12,-4,-2,12022910738,-0.258789,-0.532227,0.827637,12022910738,9.4375,70.9375,76.125,12022910738,-0.311646,-0.0359497,0.432129,0.845459,-0.607223,0.210096,0.878918
12022923536,-1,-3,-4,-8,58,17,1,0,12022910738,-0.258789,-0.532227,0.827637,12022910738,9.4375,70.9375,76.125,12022910738,-0.311646,-0.0359497,0.432129,0.845459,-0.607223,0.210096,0.878918
12022923536,-2,-1,2,13,-47,-1,-1,-1,12022931911,-0.271484,-0.525879,0.828125,12022931911,12.375,74.125,77.1875,12022931911,-0.315552,-0.0194702,0.439636,0.840637,-0.600233,0.247232,0.886767
12022932559,-1,0,1,-1,5,-2,-6,-1,12022931911,-0.271484,-0.525879,0.828125,12022931911,12.375,74.125,77.1875,12022931911,-0.315552,-0.0194702,0.439636,0.840637,-0.600233,0.247232,0.886767
12022932559,0,-1,0,-3,7,5,3,-2,12022931911,-0.271484,-0.525879,0.828125,12022931911,12.375,74.125,77.1875,12022931911,-0.315552,-0.0194702,0.439636,0.840637,-0.600233,0.247232,0.886767
12022946754,0,-1,-1,-19,-29,-19,-2,-1,12022931911,-0.271484,-0.525879,0.828125,12022931911,12.375,74.125,77.1875,12022931911,-0.315552,-0.0194702,0.439636,0.840637,-0.600233,0.247232,0.886767
12022946754,-2,-1,-5,9,33,16,2,0,12022947578,-0.275391,-0.495117,0.812988,12022947578,16.5625,78.6875,77.625,12022947578,-0.318909,-0.00219727,0.446777,0.835815,-0.591475,0.285137,0.894288
12022953674,-1,-1,0,1,-10,-2,0,-1,12022947578,-0.275391,-0.495117,0.812988,12022947578,16.5625,78.6875,77.625,12022947578,-0.318909,-0.00219727,0.446777,0.835815,-0.591475,0.285137,0.894288
12022953674,0,0,4,8,1,15,-4,0,12022947578,-0.275391,-0.495117,0.812988,12022947578,16.5625,78.6875,77.625,12022947578,-0.318909,-0.00219727,0.446777,0.835815,-0.591475,0.285137,0.894288
12022970098,-1,-1,-2,3,-5,-14,-1,-2,12022947578,-0.275391,-0.495117,0.812988,12022947578,16.5625,78.6875,77.625,12022947578,-0.318909,-0.00219727,0.446777,0.835815,-0.591475,0.285137,0.894288
12022970098,0,-1,-3,-13,-4,-5,-3,1,12022970742,-0.289551,-0.452148,0.807617,12022970742,22.1875,82.4375,75,12022970742,-0.321289,0.0158081,0.453247,0.831299,-0.580234,0.323123,0.901073
12022971521,-3,-3,-3,-6,6,4,0,-3,12022970742,-0.289551,-0.452148,0.807617,12022970742,22.1875,82.4375,75,12022970742,-0.321289,0.0158081,0.453247,0.831299,-0.580234,0.323123,0.901073
12022971521,2,-1,1,6,18,-7,0,-1,12022970742,-0.289551,-0.452148,0.807617,12022970742,22.1875,82.4375,75,12022970742,-0.321289,0.0158081,0.453247,0.831299,-0.580234,0.323123,0.901073
12022992518,0,-1,0,-1,-26,13,1,-1,12022970742,-0.289551,-0.452148,0.807617,12022970742,22.1875,82.4375,75,12022970742,-0.321289,0.0158081,0.453247,0.831299,-0.580234,0.323123,0.901073
12022992518,-3,-1,-3,-2,-9,-3,-3,-3,12022993332,-0.334473,-0.434082,0.803223,12022993332,26.4375,87.125,70,12022993332,-0.323303,0.034668,0.458557,0.826965,-0.567743,0.361678,0.905872
12022993971,0,0,-1,2,12,-1,-1,-2,12022993332,-0.334473,-0.434082,0.803223,12022993332,26.4375,87.125,70,12022993332,-0.323303,0.034668,0.458557,0.826965,-0.567743,0.361678,0.905872
12022993971,-1,-1,-2,-8,-3,-2,0,0,12022993332,-0.334473,-0.434082,0.803223,12022993332,26.4375,87.125,70,12022993332,-0.323303,0.034668,0.458557,0.826965,-0.567743,0.361678,0.905872
12023006723,0,-2,-2,-1,4,2,-1,-2,12022993332,-0.334473,-0.434082,0.803223,12022993332,26.4375,87.125,70,12022993332,-0.323303,0.034668,0.458557,0.826965,-0.567743,0.361678,0.905872
12023006723,0,1,1,3,-3,-8,-1,-1,12023007517,-0.373535,-0.427734,0.79248,12023007517,32.75,89.9375,67.5625,12023007517,-0.324707,0.0542603,0.463135,0.822876,-0.553627,0.400702,0.910006
12023013541,0,-1,-1,-1,-7,-3,-1,-1,12023007517,-0.373535,-0.427734,0.79248,12023007517,32.75,89.9375,67.5625,12023007517,-0.324707,0.0542603,0.463135,0.822876,-0.553627,0.400702,0.910006
12023013541,0,-3,-3,-2,-5,-7,-2,-2,12023007517,-0.373535,-0.427734,0.79248,12023007517,32.75,89.9375,67.5625,12023007517,-0.324707,0.0542603,0.463135,0.822876,-0.553627,0.400702,0.910006
12023029688,-1,1,0,0,-5,4,0,-1,12023007517,-0.373535,-0.427734,0.79248,12023007517,32.75,89.9375,67.5625,12023007517,-0.324707,0.0542603,0.463135,0.822876,-0.553627,0.400702,0.910006
12023029688,-2,-2,-5,-14,1,-3,-1,-1,12023030484,-0.396484,-0.436523,0.790039,12023030484,39.4375,91.375,66.4375,12023030484,-0.325317,0.0741577,0.467041,0.818787,-0.537633,0.439306,0.913749
12023035997,-1,-1,0,6,2,-2,0,0,12023030484,-0.396484,-0.436523,0.790039,12023030484,39.4375,91.375,66.4375,12023030484,-0.325317,0.0741577,0.467041,0.818787,-0.537633,0.439306,0.913749
12023035997,-1,-1,-1,1,-6,-6,-1,0,12023030484,-0.396484,-0.436523,0.790039,12023030484,39.4375,91.375,66.4375,12023030484,-0.325317,0.0741577,0.467041,0.818787,-0.537633,0.439306,0.913749
12023052380,1,0,-1,3,5,3,0,1,12023030484,-0.396484,-0.436523,0.790039,12023030484,39.4375,91.375,66.4375,12023030484,-0.325317,0.0741577,0.467041,0.818787,-0.537633,0.439306,0.913749
12023052380,1,-2,-2,-14,-3,8,0,0,12023053183,-0.419434,-0.416992,0.78125,12023053183,45.625,91.3125,66.375,12023053183,-0.32489,0.0944214,0.470703,0.814819,-0.519105,0.477687,0.918508
12023053932,-2,-3,-3,3,6,-16,-2,-1,12023053183,-0.419434,-0.416992,0.78125,12023053183,45.625,91.3125,66.375,12023053183,-0.32489,0.0944214,0.470703,0.814819,-0.519105,0.477687,0.918508
12023053932,-2,-2,-4,4,5,-2,-1,-2,12023053183,-0.419434,-0.416992,0.78125,12023053183,45.625,91.3125,66.375,12023053183,-0.32489,0.0944214,0.470703,0.814819,-0.519105,0.477687,0.918508
12023066664,-3,1,9,16,-16,18,1,1,12023053183,-0.419434,-0.416992,0.78125,12023053183,45.625,91.3125,66.375,12023053183,-0.32489,0.0944214,0.470703,0.814819,-0.519105,0.477687,0.918508
12023066664,0,-2,-3,-6,4,-28,-1,-1,12023067459,-0.447754,-0.384277,0.768066,12023067459,50.75,91,65.75,12023067459,-0.323486,0.115051,0.47406,0.81073,-0.497913,0.515828,0.924182
12023073423,-2,0,-1,-8,-2,12,0,2,12023067459,-0.447754,-0.384277,0.768066,12023067459,50.75,91,65.75,12023067459,-0.323486,0.115051,0.47406,0.81073,-0.497913,0.515828,0.924182
12023073423,-1,0,-1,5,13,9,0,-1,12023067459,-0.447754,-0.384277,0.768066,12023067459,50.75,91,65.75,12023067459,-0.323486,0.115051,0.47406,0.81073,-0.497913,0.515828,0.924182
12023089806,-3,-2,-2,-6,-16,-15,-3,-3,12023067459,-0.447754,-0.384277,0.768066,12023067459,50.75,91,65.75,12023067459,-0.323486,0.115051,0.47406,0.81073,-0.497913,0.515828,0.924182
12023089806,0,0,0,0,5,10,-1,-1,12023090601,-0.481445,-0.34082,0.750977,12023090601,58.1875,88.375,65.5625,12023090601,-0.320679,0.135925,0.477234,0.806763,-0.473106,0.553181,0.931616
12023091429,-1,-3,-2,0,11,-7,-1,-1,12023090601,-0.481445,-0.34082,0.750977,12023090601,58.1875,88.375,65.5625,12023090601,-0.320679,0.135925,0.477234,0.806763,-0.473106,0.553181,0.931616
12023091429,-1,-3,1,-5,-34,-6,0,1,12023090601,-0.481445,-0.34082,0.750977,12023090601,58.1875,88.375,65.5625,12023090601,-0.320679,0.135925,0.477234,0.806763,-0.473106,0.553181,0.931616
12023112397,-3,0,-1,-2,30,-1,-1,-1,12023090601,-0.481445,-0.34082,0.750977,12023090601,58.1875,88.375,65.5625,12023090601,-0.320679,0.135925,0.477234,0.806763,-0.473106,0.553181,0.931616
12023112397,0,0,2,15,-21,1,1,-2,12023113205,-0.471191,-0.353516,0.730957,12023113205,64.6875,88.75,65.5625,12023113205,-0.317078,0.156799,0.479736,0.802917,-0.446271,0.589591,0.939493
12023113950,0,-2,-1,-7,7,1,0,-2,12023113205,-0.471191,-0.353516,0.730957,12023113205,64.6875,88.75,65.5625,12023113205,-0.317078,0.156799,0.479736,0.802917,-0.446271,0.589591,0.939493
12023113950,-3,1,-1,-3,8,8,-2,-1,12023113205,-0.471191,-0.353516,0.730957,12023113205,64.6875,88.75,65.5625,12023113205,-0.317078,0.156799,0.479736,0.802917,-0.446271,0.589591,0.939493
12023125951,1,-1,-2,-6,-9,-6,0,-2,12023113205,-0.471191,-0.353516,0.730957,12023113205,64.6875,88.75,65.5625,12023113205,-0.317078,0.156799,0.479736,0.802917,-0.446271,0.589591,0.939493
12023125951,-2,-1,0,8,11,-5,-1,-3,12023134225,-0.479492,-0.339844,0.746582,12023134225,68.875,84.75,59.3125,12023134225,-0.3125,0.176758,0.481323,0.799622,-0.417933,0.623039,0.947285
12023135106,-1,-1,-3,-6,-13,1,-1,-3,12023134225,-0.479492,-0.339844,0.746582,12023134225,68.875,84.75,59.3125,12023134225,-0.3125,0.176758,0.481323,0.799622,-0.417933,0.623039,0.947285
12023135106,-1,0,4,4,-5,-2,0,0,12023134225,-0.479492,-0.339844,0.746582,12023134225,68.875,84.75,59.3125,12023134225,-0.3125,0.176758,0.481323,0.799622,-0.417933,0.623039,0.947285
12023150040,-1,-2,-4,-4,4,-7,-2,0,12023134225,-0.479492,-0.339844,0.746582,12023134225,68.875,84.75,59.3125,12023134225,-0.3125,0.176758,0.481323,0.799622,-0.417933,0.623039,0.947285
12023150040,-2,-4,-1,-1,-13,-2,-1,1,12023150755,-0.527344,-0.322266,0.742188,12023150755,68.3125,77.625,52.4375,12023150755,-0.307617,0.195312,0.482117,0.796692,-0.389914,0.653316,0.954696
12023151484,-1,-3,-3,-6,-3,9,0,-1,12023150755,-0.527344,-0.322266,0.742188,12023150755,68.3125,77.625,52.4375,12023150755,-0.307617,0.195312,0.482117,0.796692,-0.389914,0.653316,0.954696
12023151484,0,1,0,-4,-4,-14,-3,-2,12023150755,-0.527344,-0.322266,0.742188,12023150755,68.3125,77.625,52.4375,12023150755,-0.307617,0.195312,0.482117,0.796692,-0.389914,0.653316,0.954696
12023172603,1,1,1,6,-1,1,0,1,12023150755,-0.527344,-0.322266,0.742188,12023150755,68.3125,77.625,52.4375,12023150755,-0.307617,0.195312,0.482117,0.796692,-0.389914,0.653316,0.954696
12023172603,-2,-2,-4,-15,0,6,-1,-2,12023173307,-0.580078,-0.290527,0.72998,12023173307,68.4375,72.5,51,12023173307,-0.302307,0.213318,0.482849,0.79364,-0.3606,0.682239,0.96377
12023174026,-1,0,0,7,13,-3,0,0,12023173307,-0.580078,-0.290527,0.72998,12023173307,68.4375,72.5,51,12023173307,-0.302307,0.213318,0.482849,0.79364,-0.3606,0.682239,0.96377
12023174026,0,-1,-4,13,0,-4,-1,-2,12023173307,-0.580078,-0.290527,0.72998,12023173307,68.4375,72.5,51,12023173307,-0.302307,0.213318,0.482849,0.79364,-0.3606,0.682239,0.96377
12023186921,-1,0,-2,-1,-5,0,-2,-1,12023173307,-0.580078,-0.290527,0.72998,12023173307,68.4375,72.5,51,12023173307,-0.302307,0.213318,0.482849,0.79364,-0.3606,0.682239,0.96377
12023186921,-2,-2,-1,-2,9,-1,-1,0,12023187565,-0.577148,-0.258789,0.704102,12023187565,74.0625,67.75,53.125,12023187565,-0.295715,0.231079,0.483704,0.790649,-0.327541,0.709537,0.975711
12023193695,1,0,0,-11,-26,-11,0,-2,12023187565,-0.577148,-0.258789,0.704102,12023187565,74.0625,67.75,53.125,12023187565,-0.295715,0.231079,0.483704,0.790649,-0.327541,0.709537,0.975711
12023193695,0,1,-3,-4,11,0,-1,0,12023187565,-0.577148,-0.258789,0.704102,12023187565,74.0625,67.75,53.125,12023187565,-0.295715,0.231079,0.483704,0.790649,-0.327541,0.709537,0.975711
12023209931,-1,-4,0,1,1,11,-1,-2,12023187565,-0.577148,-0.258789,0.704102,12023187565,74.0625,67.75,53.125,12023187565,-0.295715,0.231079,0.483704,0.790649,-0.327541,0.709537,0.975711
12023209931,-3,0,-3,-5,2,-3,-2,-3,12023210762,-0.540527,-0.259277,0.688477,12023210762,76.4375,65.9375,53.125,12023210762,-0.288574,0.248169,0.484253,0.78772,-0.293001,0.73483,0.988736
12023211518,0,1,3,4,-2,-1,0,-1,12023210762,-0.540527,-0.259277,0.688477,12023210762,76.4375,65.9375,53.125,12023210762,-0.288574,0.248169,0.484253,0.78772,-0.293001,0.73483,0.988736
12023211518,-1,-3,-2,-10,-17,-12,-1,0,12023210762,-0.540527,-0.259277,0.688477,12023210762,76.4375,65.9375,53.125,12023210762,-0.288574,0.248169,0.484253,0.78772,-0.293001,0.73483,0.988736
12023232575,-1,0,-1,3,0,-2,0,-1,12023210762,-0.540527,-0.259277,0.688477,12023210762,76.4375,65.9375,53.125,12023210762,-0.288574,0.248169,0.484253,0.78772,-0.293001,0.73483,0.988736
12023232575,0,0,-1,-1,9,-5,-2,0,12023233208,-0.549805,-0.255859,0.684082,12023233208,75.8125,59.8125,45.75,12023233208,-0.281372,0.263672,0.483948,0.785522,-0.259908,0.756773,1.00043
12023233977,-2,0,-1,0,12,4,0,-1,12023233208,-0.549805,-0.255859,0.684082,12023233208,75.8125,59.8125,45.75,12023233208,-0.281372,0.263672,0.483948,0.785522,-0.259908,0.756773,1.00043
12023233977,-2,0,1,7,-11,3,-1,-1,12023233208,-0.549805,-0.255859,0.684082,12023233208,75.8125,59.8125,45.75,12023233208,-0.281372,0.263672,0.483948,0.785522,-0.259908,0.756773,1.00043
12023246210,-1,0,-1,6,17,8,2,-1,12023233208,-0.549805,-0.255859,0.684082,12023233208,75.8125,59.8125,45.75,12023233208,-0.281372,0.263672,0.483948,0.785522,-0.259908,0.756773,1.00043
12023246210,0,-2,-3,-3,-27,-12,-1,-2,12023254402,-0.61377,-0.259766,0.69873,12023254402,70.875,54.125,36.125,12023254402,-0.275085,0.277527,0.482544,0.783813,-0.231029,0.776154,1.00874
12023255054,-2,-2,0,6,18,3,-1,1,12023254402,-0.61377,-0.259766,0.69873,12023254402,70.875,54.125,36.125,12023254402,-0.275085,0.277527,0.482544,0.783813,-0.231029,0.776154,1.00874
12023255054,-1,-3,-4,-10,3,-4,0,-1,12023254402,-0.61377,-0.259766,0.69873,12023254402,70.875,54.125,36.125,12023254402,-0.275085,0.277527,0.482544,0.783813,-0.231029,0.776154,1.00874
12023269955,0,1,-2,1,-2,-8,-2,-1,12023254402,-0.61377,-0.259766,0.69873,12023254402,70.875,54.125,36.125,12023254402,-0.275085,0.277527,0.482544,0.783813,-0.231029,0.776154,1.00874
12023269955,-1,0,-2,3,4,8,0,0,12023270693,-0.672363,-0.198242,0.694336,12023270693,65.3125,45.125,31.6875,12023270693,-0.268738,0.290039,0.481323,0.782227,-0.20265,0.792986,1.01798
12023271506,-3,0,-1,-8,-16,-6,-1,0,12023270693,-0.672363,-0.198242,0.694336,12023270693,65.3125,45.125,31.6875,12023270693,-0.268738,0.290039,0.481323,0.782227,-0.20265,0.792986,1.01798
12023271506,-1,-1,-1,7,8,1,0,-1,12023270693,-0.672363,-0.198242,0.694336,12023270693,65.3125,45.125,31.6875,12023270693,-0.268738,0.290039,0.481323,0.782227,-0.20265,0.792986,1.01798
12023292411,0,-1,1,5,-1,1,-2,1,12023270693,-0.672363,-0.198242,0.694336,12023270693,65.3125,45.125,31.6875,12023270693,-0.268738,0.290039,0.481323,0.782227,-0.20265,0.792986,1.01798
12023292411,0,0,1,2,4,-1,-1,-1,12023293188,-0.64502,-0.17627,0.690918,12023293188,60.0625,39.1875,32.8125,12023293188,-0.262329,0.301025,0.480713,0.78064,-0.174608,0.80697,1.02908
12023293955,0,-4,-5,-13,-17,-2,-2,-2,12023293188,-0.64502,-0.17627,0.690918,12023293188,60.0625,39.1875,32.8125,12023293188,-0.262329,0.301025,0.480713,0.78064,-0.174608,0.80697,1.02908
12023293955,0,-1,-3,-13,-7,1,-1,0,12023293188,-0.64502,-0.17627,0.690918,12023293188,60.0625,39.1875,32.8125,12023293188,-0.262329,0.301025,0.480713,0.78064,-0.174608,0.80697,1.02908
12023306021,-4,-3,-2,5,-4,-10,0,-2,12023293188,-0.64502,-0.17627,0.690918,12023293188,60.0625,39.1875,32.8125,12023293188,-0.262329,0.301025,0.480713,0.78064,-0.174608,0.80697,1.02908
12023306021,-1,-3,-1,-18,2,6,-2,-1,12023314399,-0.626465,-0.157227,0.685059,12023314399,55.75,33.125,30.4375,12023314399,-0.255981,0.310425,0.480286,0.779297,-0.147954,0.817904,1.04024
12023315016,-1,-1,1,18,13,4,-4,-2,12023314399,-0.626465,-0.157227,0.685059,12023314399,55.75,33.125,30.4375,12023314399,-0.255981,0.310425,0.480286,0.779297,-0.147954,0.817904,1.04024
12023315016,-2,-4,-3,-14,-11,-4,-1,-1,12023314399,-0.626465,-0.157227,0.685059,12023314399,55.75,33.125,30.4375,12023314399,-0.255981,0.310425,0.480286,0.779297,-0.147954,0.817904,1.04024
12023329949,1,-2,-3,-5,3,-1,-1,-1,12023314399,-0.626465,-0.157227,0.685059,12023314399,55.75,33.125,30.4375,12023314399,-0.255981,0.310425,0.480286,0.779297,-0.147954,0.817904,1.04024
12023329949,2,1,10,29,-19,-8,-1,2,12023330690,-0.655273,-0.163574,0.692871,12023330690,49.75,23.1875,22.625,12023330690,-0.250244,0.317627,0.479431,0.77887,-0.126011,0.825268,1.04833
12023331472,-1,0,-3,-9,-1,0,-1,0,12023330690,-0.655273,-0.163574,0.692871,12023330690,49.75,23.1875,22.625,12023330690,-0.250244,0.317627,0.479431,0.77887,-0.126011,0.825268,1.04833
12023331472,-2,-1,-4,-8,-1,2,-4,-3,12023330690,-0.655273,-0.163574,0.692871,12023330690,49.75,23.1875,22.625,12023330690,-0.250244,0.317627,0.479431,0.77887,-0.126011,0.825268,1.04833
12023352521,-1,-1,-2,-11,-1,1,0,0,12023330690,-0.655273,-0.163574,0.692871,12023330690,49.75,23.1875,22.625,12023330690,-0.250244,0.317627,0.479431,0.77887,-0.126011,0.825268,1.04833
12023352521,-3,-3,-3,-8,12,7,-1,-1,12023353275,-0.706055,-0.149414,0.660645,12023353275,51.1875,17.5625,20.375,12023353275,-0.244263,0.324524,0.47821,0.778625,-0.104089,0.83156,1.05545
12023354044,0,1,3,9,-16,-9,-1,0,12023353275,-0.706055,-0.149414,0.660645,12023353275,51.1875,17.5625,20.375,12023353275,-0.244263,0.324524,0.47821,0.778625,-0.104089,0.83156,1.05545
12023354044,-2,-1,1,6,16,4,1,-1,12023353275,-0.706055,-0.149414,0.660645,12023353275,51.1875,17.5625,20.375,12023353275,-0.244263,0.324524,0.47821,0.778625,-0.104089,0.83156,1.05545
12023366200,-2,-2,0,-3,-10,-3,-1,-1,12023353275,-0.706055,-0.149414,0.660645,12023353275,51.1875,17.5625,20.375,12023353275,-0.244263,0.324524,0.47821,0.778625,-0.104089,0.83156,1.05545
12023366200,0,-1,-3,1,9,1,0,-1,12023374438,-0.720215,-0.0908203,0.657227,12023374438,54.0625,15.875,22,12023374438,-0.237305,0.331787,0.477295,0.778259,-0.0787456,0.837484,1.06505
12023375013,-1,-2,-1,0,-11,-5,-2,-4,12023374438,-0.720215,-0.0908203,0.657227,12023374438,54.0625,15.875,22,12023374438,-0.237305,0.331787,0.477295,0.778259,-0.0787456,0.837484,1.06505
12023375013,-2,-1,-1,-3,0,-1,-1,-1,12023374438,-0.720215,-0.0908203,0.657227,12023374438,54.0625,15.875,22,12023374438,-0.237305,0.331787,0.477295,0.778259,-0.0787456,0.837484,1.06505
12023389877,-2,0,-1,-3,-6,0,-3,-2,12023374438,-0.720215,-0.0908203,0.657227,12023374438,54.0625,15.875,22,12023374438,-0.237305,0.331787,0.477295,0.778259,-0.0787456,0.837484,1.06505
12023389877,-1,-1,-3,-3,2,-1,-1,-1,12023390653,-0.685547,-0.065918,0.636719,12023390653,52.875,13.5625,23.75,12023390653,-0.230042,0.338623,0.476807,0.777832,-0.0525242,0.842267,1.07624
12023391426,-2,0,-1,4,16,4,0,0,12023390653,-0.685547,-0.065918,0.636719,12023390653,52.875,13.5625,23.75,12023390653,-0.230042,0.338623,0.476807,0.777832,-0.0525242,0.842267,1.07624
12023391426,2,4,7,4,-18,-2,-1,0,12023390653,-0.685547,-0.065918,0.636719,12023390653,52.875,13.5625,23.75,12023390653,-0.230042,0.338623,0.476807,0.777832,-0.0525242,0.842267,1.07624
12023412462,0,0,1,28,8,-1,-2,0,12023390653,-0.685547,-0.065918,0.636719,12023390653,52.875,13.5625,23.75,12023390653,-0.230042,0.338623,0.476807,0.777832,-0.0525242,0.842267,1.07624
12023412462,1,1,1,-5,-6,-5,0,0,12023413182,-0.660156,-0.0512695,0.675781,12023413182,41.8125,11.3125,24,12023413182,-0.223755,0.34375,0.477112,0.777161,-0.0297899,0.844757,1.08758
12023413952,-3,-4,-5,-13,-3,-5,-3,-1,12023413182,-0.660156,-0.0512695,0.675781,12023413182,41.8125,11.3125,24,12023413182,-0.223755,0.34375,0.477112,0.777161,-0.0297899,0.844757,1.08758
12023413952,-2,-2,-2,-6,3,-1,-1,-2,12023413182,-0.660156,-0.0512695,0.675781,12023413182,41.8125,11.3125,24,12023413182,-0.223755,0.34375,0.477112,0.777161,-0.0297899,0.844757,1.08758
12023425988,0,-3,-2,-7,16,-6,-1,0,12023413182,-0.660156,-0.0512695,0.675781,12023413182,41.8125,11.3125,24,12023413182,-0.223755,0.34375,0.477112,0.777161,-0.0297899,0.844757,1.08758
12023425988,-1,-1,-1,0,-21,6,0,-2,12023434248,-0.712402,-0.03125,0.718262,12023434248,34.4375,5.4375,24,12023434248,-0.217957,0.347534,0.478149,0.776489,-0.00924761,0.845262,1.09952
12023435000,2,-1,0,-3,3,7,-2,-1,12023434248,-0.712402,-0.03125,0.718262,12023434248,34.4375,5.4375,24,12023434248,-0.217957,0.347534,0.478149,0.776489,-0.00924761,0.845262,1.09952
12023435000,1,-1,-1,-2,0,1,0,-2,12023434248,-0.712402,-0.03125,0.718262,12023434248,34.4375,5.4375,24,12023434248,-0.217957,0.347534,0.478149,0.776489,-0.00924761,0.845262,1.09952
12023449869,-2,-1,-2,-8,-15,-7,-1,-2,12023434248,-0.712402,-0.03125,0.718262,12023434248,34.4375,5.4375,24,12023434248,-0.217957,0.347534,0.478149,0.776489,-0.00924761,0.845262,1.09952
12023449869,-2,-1,-1,1,18,-6,-1,0,12023450627,-0.766113,-0.0117188,0.708984,12023450627,30.0625,-2.375,23.4375,12023450627,-0.212341,0.350342,0.479553,0.77594,0.00976401,0.844059,1.11137
12023451455,-2,-3,-2,-3,-11,-5,-1,-1,12023450627,-0.766113,-0.0117188,0.708984,12023450627,30.0625,-2.375,23.4375,12023450627,-0.212341,0.350342,0.479553,0.77594,0.00976401,0.844059,1.11137
12023451455,-1,-2,-1,2,-1,-1,-2,0,12023450627,-0.766113,-0.0117188,0.708984,12023450627,30.0625,-2.375,23.4375,12023450627,-0.212341,0.350342,0.479553,0.77594,0.00976401,0.844059,1.11137
12023472427,-1,-1,-3,-15,1,1,-1,-2,12023450627,-0.766113,-0.0117188,0.708984,12023450627,30.0625,-2.375,23.4375,12023450627,-0.212341,0.350342,0.479553,0.77594,0.00976401,0.844059,1.11137
12023472427,0,1,4,3,-12,-6,-2,-1,12023473170,-0.756836,-0.0415039,0.685059,12023473170,30.1875,-4.375,24.375,12023473170,-0.206909,0.352722,0.480957,0.775452,0.0276276,0.842136,1.12252
12023473990,-2,0,3,26,14,3,1,-3,12023473170,-0.756836,-0.0415039,0.685059,12023473170,30.1875,-4.375,24.375,12023473170,-0.206909,0.352722,0.480957,0.775452,0.0276276,0.842136,1.12252
12023473990,0,-1,-1,-3,3,-5,-1,0,12023473170,-0.756836,-0.0415039,0.685059,12023473170,30.1875,-4.375,24.375,12023473170,-0.206909,0.352722,0.480957,0.775452,0.0276276,0.842136,1.12252
12023485980,0,0,0,0,13,0,0,-1,12023473170,-0.756836,-0.0415039,0.685059,12023473170,30.1875,-4.375,24.375,12023473170,-0.206909,0.352722,0.480957,0.775452,0.0276276,0.842136,1.12252
12023485980,-3,-2,-3,-9,-9,14,-1,-2,12023494230,-0.724609,-0.0620117,0.708008,12023494230,33.3125,-6.0625,23.25,12023494230,-0.20105,0.354614,0.481995,0.775513,0.0449196,0.838776,1.1321
12023495013,0,-1,-1,-12,-4,-6,-1,0,12023494230,-0.724609,-0.0620117,0.708008,12023494230,33.3125,-6.0625,23.25,12023494230,-0.20105,0.354614,0.481995,0.775513,0.0449196,0.838776,1.1321
12023495013,0,-1,-3,-7,-6,7,-1,-1,12023494230,-0.724609,-0.0620117,0.708008,12023494230,33.3125,-6.0625,23.25,12023494230,-0.20105,0.354614,0.481995,0.775513,0.0449196,0.838776,1.1321
12023509916,-3,-4,-4,0,-8,-4,0,-2,12023494230,-0.724609,-0.0620117,0.708008,12023494230,33.3125,-6.0625,23.25,12023494230,-0.20105,0.354614,0.481995,0.775513,0.0449196,0.838776,1.1321
12023509916,0,0,0,0,16,15,2,0,12023510663,-0.727539,-0.0249023,0.722656,12023510663,33.375,-10.9375,21.875,12023510663,-0.194641,0.355835,0.483093,0.775879,0.0621665,0.833411,1.14116
12023511447,-2,2,1,-2,-16,-41,-3,0,12023510663,-0.727539,-0.0249023,0.722656,12023510663,33.375,-10.9375,21.875,12023510663,-0.194641,0.355835,0.483093,0.775879,0.0621665,0.833411,1.14116
12023511447,-5,-6,-8,-12,-12,4,-9,-3,12023510663,-0.727539,-0.0249023,0.722656,12023510663,33.375,-10.9375,21.875,12023510663,-0.194641,0.355835,0.483093,0.775879,0.0621665,0.833411,1.14116
12023532383,-1,-1,-2,-10,-25,-3,-1,0,12023510663,-0.727539,-0.0249023,0.722656,12023510663,33.375,-10.9375,21.875,12023510663,-0.194641,0.355835,0.483093,0.775879,0.0621665,0.833411,1.14116
12023532383,0,-1,-3,1,3,-7,-1,-1,12023533173,-0.761719,0.0688477,0.703125,12023533173,28,-15.9375,22.5,12023533173,-0.187927,0.356812,0.485046,0.775879,0.0806306,0.827131,1.15269
12023533958,1,0,1,3,3,14,2,1,12023533173,-0.761719,0.0688477,0.703125,12023533173,28,-15.9375,22.5,12023533173,-0.187927,0.356812,0.485046,0.775879,0.0806306,0.827131,1.15269
12023533958,-1,-1,3,-1,22,-2,0,-1,12023533173,-0.761719,0.0688477,0.703125,12023533173,28,-15.9375,22.5,12023533173,-0.187927,0.356812,0.485046,0.775879,0.0806306,0.827131,1.15269
12023545999,0,-1,2,5,-11,10,1,0,12023533173,-0.761719,0.0688477,0.703125,12023533173,28,-15.9375,22.5,12023533173,-0.187927,0.356812,0.485046,0.775879,0.0806306,0.827131,1.15269
12023545999,-2,-3,-2,2,-9,2,-2,-4,12023554264,-0.770996,0.0546875,0.716309,12023554264,20.5,-16.25,23.5,12023554264,-0.182434,0.357056,0.487366,0.775635,0.0955562,0.820833,1.16349
12023555011,0,0,-1,-6,7,-5,1,4,12023554264,-0.770996,0.0546875,0.716309,12023554264,20.5,-16.25,23.5,12023554264,-0.182434,0.357056,0.487366,0.775635,0.0955562,0.820833,1.16349
12023555011,3,-1,1,9,7,-7,1,-3,12023554264,-0.770996,0.0546875,0.716309,12023554264,20.5,-16.25,23.5,12023554264,-0.182434,0.357056,0.487366,0.775635,0.0955562,0.820833,1.16349
12023569874,0,0,1,-2,-5,-2,-5,-3,12023554264,-0.770996,0.0546875,0.716309,12023554264,20.5,-16.25,23.5,12023554264,-0.182434,0.357056,0.487366,0.775635,0.0955562,0.820833,1.16349
12023569874,-2,-1,-1,-1,2,-10,-2,0,12023570658,-0.764648,0.0424805,0.711914,12023570658,19.3125,-16.9375,26.375,12023570658,-0.177124,0.357056,0.490173,0.775146,0.11013,0.81421,1.17526
12023571478,-3,-2,-5,-11,-18,3,-4,-4,12023570658,-0.764648,0.0424805,0.711914,12023570658,19.3125,-16.9375,26.375,12023570658,-0.177124,0.357056,0.490173,0.775146,0.11013,0.81421,1.17526
12023571478,0,-1,-2,8,22,1,1,1,12023570658,-0.764648,0.0424805,0.711914,12023570658,19.3125,-16.9375,26.375,12023570658,-0.177124,0.357056,0.490173,0.775146,0.11013,0.81421,1.17526
12023592347,0,-2,0,3,3,14,1,0,12023570658,-0.764648,0.0424805,0.711914,12023570658,19.3125,-16.9375,26.375,12023570658,-0.177124,0.357056,0.490173,0.775146,0.11013,0.81421,1.17526
12023592347,-1,-2,-4,-8,-10,-16,-2,-2,12023593122,-0.875,-0.0551758,0.930176,12023593122,12.125,-12,23.875,12023593122,-0.174072,0.355591,0.492615,0.774902,0.116814,0.807553,1.18235
12023593960,0,0,0,0,2,8,-1,-2,12023593122,-0.875,-0.0551758,0.930176,12023593122,12.125,-12,23.875,12023593122,-0.174072,0.355591,0.492615,0.774902,0.116814,0.807553,1.18235
12023593960,-2,0,-1,3,-6,-7,-1,2,12023593122,-0.875,-0.0551758,0.930176,12023593122,12.125,-12,23.875,12023593122,-0.174072,0.355591,0.492615,0.774902,0.116814,0.807553,1.18235
12023606022,0,-1,-2,-3,-1,-9,-1,-2,12023593122,-0.875,-0.0551758,0.930176,12023593122,12.125,-12,23.875,12023593122,-0.174072,0.355591,0.492615,0.774902,0.116814,0.807553,1.18235
12023606022,-3,0,1,0,12,4,1,-1,12023614183,-1.33887,0.194824,0.900391,12023614183,-13.75,-22.1875,4,12023614183,-0.174683,0.354614,0.494141,0.774292,0.115773,0.806379,1.18544
12023614954,1,-2,-4,-7,-13,-11,-3,-1,12023614183,-1.33887,0.194824,0.900391,12023614183,-13.75,-22.1875,4,12023614183,-0.174683,0.354614,0.494141,0.774292,0.115773,0.806379,1.18544
12023614954,3,2,4,7,9,9,1,0,12023614183,-1.33887,0.194824,0.900391,12023614183,-13.75,-22.1875,4,12023614183,-0.174683,0.354614,0.494141,0.774292,0.115773,0.806379,1.18544
12023629815,2,3,1,0,-9,-17,-1,-1,12023614183,-1.33887,0.194824,0.900391,12023614183,-13.75,-22.1875,4,12023614183,-0.174683,0.354614,0.494141,0.774292,0.115773,0.806379,1.18544
12023629815,-1,-1,1,3,7,8,-1,0,12023630644,-0.901855,-0.0722656,0.66748,12023630644,30.625,-9.875,27.375,12023630644,-0.170471,0.357117,0.495117,0.773376,0.130229,0.805501,1.19428
12023631422,-1,-2,-1,0,8,-1,-1,1,12023630644,-0.901855,-0.0722656,0.66748,12023630644,30.625,-9.875,27.375,12023630644,-0.170471,0.357117,0.495117,0.773376,0.130229,0.805501,1.19428
12023631422,-1,-2,-1,-1,-23,-3,0,-4,12023630644,-0.901855,-0.0722656,0.66748,12023630644,30.625,-9.875,27.375,12023630644,-0.170471,0.357117,0.495117,0.773376,0.130229,0.805501,1.19428
12023652414,0,-3,-3,-3,19,0,-4,0,12023630644,-0.901855,-0.0722656,0.66748,12023630644,30.625,-9.875,27.375,12023630644,-0.170471,0.357117,0.495117,0.773376,0.130229,0.805501,1.19428
12023652414,1,1,0,-1,-20,4,2,1,12023653188,-0.371582,0.0424805,0.677734,12023653188,36.125,-12.0625,35.75,12023653188,-0.161377,0.357239,0.498596,0.773071,0.152873,0.794147,1.20974
12023653959,0,-1,-2,-2,-3,0,-1,-4,12023653188,-0.371582,0.0424805,0.677734,12023653188,36.125,-12.0625,35.75,12023653188,-0.161377,0.357239,0.498596,0.773071,0.152873,0.794147,1.20974
12023653959,-1,-1,-2,-3,-4,-6,0,0,12023653188,-0.371582,0.0424805,0.677734,12023653188,36.125,-12.0625,35.75,12023653188,-0.161377,0.357239,0.498596,0.773071,0.152873,0.794147,1.20974
12023666036,-2,-1,0,2,2,2,0,1,12023653188,-0.371582,0.0424805,0.677734,12023653188,36.125,-12.0625,35.75,12023653188,-0.161377,0.357239,0.498596,0.773071,0.152873,0.794147,1.20974
12023666036,-1,-2,-2,0,6,-3,-2,0,12023674205,-0.464355,0.15918,0.614258,12023674205,42.125,-15.1875,13.6875,12023674205,-0.152283,0.358521,0.49884,0.77417,0.173257,0.785305,1.21659
12023674984,-1,-1,0,1,-16,-9,1,1,12023674205,-0.464355,0.15918,0.614258,12023674205,42.125,-15.1875,13.6875,12023674205,-0.152283,0.358521,0.49884,0.77417,0.173257,0.785305,1.21659
12023674984,-3,0,-4,-1,46,24,0,-2,12023674205,-0.464355,0.15918,0.614258,12023674205,42.125,-15.1875,13.6875,12023674205,-0.152283,0.358521,0.49884,0.77417,0.173257,0.785305,1.21659
12023689833,1,1,0,-1,-4,-24,0,0,12023674205,-0.464355,0.15918,0.614258,12023674205,42.125,-15.1875,13.6875,12023674205,-0.152283,0.358521,0.49884,0.77417,0.173257,0.785305,1.21659
12023689833,-2,-3,-5,-9,-45,-16,-7,-3,12023690627,-0.700195,0.257812,0.661621,12023690627,24.5,-12.5625,11.4375,12023690627,-0.145996,0.360229,0.499573,0.77417,0.189532,0.780492,1.22428
12023691443,-1,0,2,2,5,24,2,0,12023690627,-0.700195,0.257812,0.661621,12023690627,24.5,-12.5625,11.4375,12023690627,-0.145996,0.360229,0.499573,0.77417,0.189532,0.780492,1.22428
12023691443,-4,-4,-3,0,21,3,-2,-3,12023690627,-0.700195,0.257812,0.661621,12023690627,24.5,-12.5625,11.4375,12023690627,-0.145996,0.360229,0.499573,0.77417,0.189532,0.780492,1.22428
12023712419,-4,-5,-3,-8,-19,-8,-6,-6,12023690627,-0.700195,0.257812,0.661621,12023690627,24.5,-12.5625,11.4375,12023690627,-0.145996,0.360229,0.499573,0.77417,0.189532,0.780492,1.22428
12023712419,0,1,-1,1,28,-2,1,0,12023713187,-0.843262,0.30127,0.700684,12023713187,1.8125,-17.375,13,12023713187,-0.142578,0.360168,0.501831,0.773315,0.198758,0.775605,1.23256
12023714007,1,1,1,2,-41,-15,1,-2,12023713187,-0.843262,0.30127,0.700684,12023713187,1.8125,-17.375,13,12023713187,-0.142578,0.360168,0.501831,0.773315,0.198758,0.775605,1.23256
12023714007,-2,0,-1,-2,-4,11,2,13,12023713187,-0.843262,0.30127,0.700684,12023713187,1.8125,-17.375,13,12023713187,-0.142578,0.360168,0.501831,0.773315,0.198758,0.775605,1.23256
12023726014,1,-1,1,-1,9,15,0,2,12023713187,-0.843262,0.30127,0.700684,12023713187,1.8125,-17.375,13,12023713187,-0.142578,0.360168,0.501831,0.773315,0.198758,0.775605,1.23256
12023726014,-1,-2,-1,-1,-8,-13,-2,-1,12023734262,-0.826172,0.18457,0.654297,12023734262,-12.1875,-25.0625,7.125,12023734262,-0.141907,0.357361,0.503906,0.773376,0.197117,0.769483,1.23485
12023735027,-1,-1,-1,-3,8,2,0,-1,12023734262,-0.826172,0.18457,0.654297,12023734262,-12.1875,-25.0625,7.125,12023734262,-0.141907,0.357361,0.503906,0.773376,0.197117,0.769483,1.23485
12023735027,1,-1,1,1,-3,-7,0,-4,12023734262,-0.826172,0.18457,0.654297,12023734262,-12.1875,-25.0625,7.125,12023734262,-0.141907,0.357361,0.503906,0.773376,0.197117,0.769483,1.23485
12023749895,-1,0,-2,1,-3,2,-2,-1,12023734262,-0.826172,0.18457,0.654297,12023734262,-12.1875,-25.0625,7.125,12023734262,-0.141907,0.357361,0.503906,0.773376,0.197117,0.769483,1.23485
12023749895,-1,-1,1,1,-1,-4,-3,2,12023750680,-0.694336,0.0947266,0.725586,12023750680,-24.625,-33,15.375,12023750680,-0.141785,0.35083,0.508179,0.773621,0.18993,0.757246,1.23806
12023751482,1,-3,-3,-1,26,11,-2,-2,12023750680,-0.694336,0.0947266,0.725586,12023750680,-24.625,-33,15.375,12023750680,-0.141785,0.35083,0.508179,0.773621,0.18993,0.757246,1.23806
12023751482,-1,-1,0,-3,-24,-10,2,0,12023750680,-0.694336,0.0947266,0.725586,12023750680,-24.625,-33,15.375,12023750680,-0.141785,0.35083,0.508179,0.773621,0.18993,0.757246,1.23806
12023772348,0,0,1,1,29,-13,1,1,12023750680,-0.694336,0.0947266,0.725586,12023750680,-24.625,-33,15.375,12023750680,-0.141785,0.35083,0.508179,0.773621,0.18993,0.757246,1.23806
12023772348,1,-1,0,-3,-57,29,0,-3,12023773141,-0.706543,0.0454102,0.74707,12023773141,-21.3125,-35.25,17.5625,12023773141,-0.141418,0.344116,0.51239,0.773926,0.182881,0.744445,1.2411
12023773948,-3,-1,-1,-3,30,0,-3,-1,12023773141,-0.706543,0.0454102,0.74707,12023773141,-21.3125,-35.25,17.5625,12023773141,-0.141418,0.344116,0.51239,0.773926,0.182881,0.744445,1.2411
12023773948,0,-1,-2,1,-6,-2,-2,-1,12023773141,-0.706543,0.0454102,0.74707,12023773141,-21.3125,-35.25,17.5625,12023773141,-0.141418,0.344116,0.51239,0.773926,0.182881,0.744445,1.2411
12023786012,0,0,-1,-1,-4,-10,-1,-3,12023773141,-0.706543,0.0454102,0.74707,12023773141,-21.3125,-35.25,17.5625,12023773141,-0.141418,0.344116,0.51239,0.773926,0.182881,0.744445,1.2411
12023786012,-2,1,0,2,32,-3,-1,1,12023794251,-0.682129,0.0419922,0.765137,12023794251,-5.75,-38.75,18.5,12023794251,-0.138489,0.338135,0.515869,0.77478,0.181177,0.729966,1.24414
12023795008,-2,1,0,2,-13,2,0,0,12023794251,-0.682129,0.0419922,0.765137,12023794251,-5.75,-38.75,18.5,12023794251,-0.138489,0.338135,0.515869,0.77478,0.181177,0.729966,1.24414
12023795008,1,2,2,0,-19,-9,-1,-2,12023794251,-0.682129,0.0419922,0.765137,12023794251,-5.75,-38.75,18.5,12023794251,-0.138489,0.338135,0.515869,0.77478,0.181177,0.729966,1.24414
12023809890,-2,-2,0,1,10,6,1,1,12023794251,-0.682129,0.0419922,0.765137,12023794251,-5.75,-38.75,18.5,12023794251,-0.138489,0.338135,0.515869,0.77478,0.181177,0.729966,1.24414
12023809890,-2,-2,-3,-2,18,2,-2,-2,12023810656,-0.635742,0.0556641,0.780273,12023810656,17.5625,-38.6875,20.125,12023810656,-0.132019,0.334045,0.518311,0.776001,0.188296,0.71457,1.24805
12023811468,-2,-2,-2,-3,-20,-6,-2,1,12023810656,-0.635742,0.0556641,0.780273,12023810656,17.5625,-38.6875,20.125,12023810656,-0.132019,0.334045,0.518311,0.776001,0.188296,0.71457,1.24805
12023811468,-2,0,1,0,1,-5,0,-4,12023810656,-0.635742,0.0556641,0.780273,12023810656,17.5625,-38.6875,20.125,12023810656,-0.132019,0.334045,0.518311,0.776001,0.188296,0.71457,1.24805
12023832365,-3,-3,-3,-7,-14,8,0,-3,12023810656,-0.635742,0.0556641,0.780273,12023810656,17.5625,-38.6875,20.125,12023810656,-0.132019,0.334045,0.518311,0.776001,0.188296,0.71457,1.24805
12023832365,0,0,4,4,7,-9,-1,-3,12023833136,-0.680664,0.138672,0.762207,12023833136,28.9375,-42.9375,12,12023833136,-0.12384,0.331238,0.519104,0.778076,0.198935,0.699753,1.24941
12023833960,-4,-11,-3,-2,4,-3,-4,-2,12023833136,-0.680664,0.138672,0.762207,12023833136,28.9375,-42.9375,12,12023833136,-0.12384,0.331238,0.519104,0.778076,0.198935,0.699753,1.24941
12023833960,0,1,1,0,-6,-9,-2,-1,12023833136,-0.680664,0.138672,0.762207,12023833136,28.9375,-42.9375,12,12023833136,-0.12384,0.331238,0.519104,0.778076,0.198935,0.699753,1.24941
12023854916,-41,-61,-13,-5,-13,-1,-3,-2,12023833136,-0.680664,0.138672,0.762207,12023833136,28.9375,-42.9375,12,12023833136,-0.12384,0.331238,0.519104,0.778076,0.198935,0.699753,1.24941
12023854916,10,-3,-8,-4,4,0,-1,-18,12023855696,-0.639648,0.157227,0.705078,12023855696,44.1875,-46.6875,12.125,12023855696,-0.113098,0.329529,0.519043,0.780457,0.215228,0.683836,1.25052
12023856477,64,32,2,1,9,-2,1,46,12023855696,-0.639648,0.157227,0.705078,12023855696,44.1875,-46.6875,12.125,12023855696,-0.113098,0.329529,0.519043,0.780457,0.215228,0.683836,1.25052
12023856477,-99,-93,-3,-3,-9,-1,-1,-24,12023855696,-0.639648,0.157227,0.705078,12023855696,44.1875,-46.6875,12.125,12023855696,-0.113098,0.329529,0.519043,0.780457,0.215228,0.683836,1.25052
12023869235,118,125,7,-7,-14,-1,-11,-48,12023855696,-0.639648,0.157227,0.705078,12023855696,44.1875,-46.6875,12.125,12023855696,-0.113098,0.329529,0.519043,0.780457,0.215228,0.683836,1.25052
12023869235,-95,-37,14,7,25,-5,3,-31,12023870030,-0.598633,0.0844727,0.742676,12023870030,41.8125,-43.1875,17.625,12023870030,-0.103333,0.327209,0.519653,0.78241,0.229217,0.668001,1.25234
12023876002,95,35,4,-4,-6,-5,-2,14,12023870030,-0.598633,0.0844727,0.742676,12023870030,41.8125,-43.1875,17.625,12023870030,-0.103333,0.327209,0.519653,0.78241,0.229217,0.668001,1.25234
12023876002,56,101,31,7,-4,-5,3,1,12023870030,-0.598633,0.0844727,0.742676,12023870030,41.8125,-43.1875,17.625,12023870030,-0.103333,0.327209,0.519653,0.78241,0.229217,0.668001,1.25234
12023892406,-72,-75,-17,-4,4,3,-1,10,12023870030,-0.598633,0.0844727,0.742676,12023870030,41.8125,-43.1875,17.625,12023870030,-0.103333,0.327209,0.519653,0.78241,0.229217,0.668001,1.25234
12023892406,-40,-58,-23,-8,1,-6,-6,-11,12023893167,-0.583984,0.107422,0.980469,12023893167,23.9375,-43.6875,45.4375,12023893167,-0.093811,0.322205,0.52533,0.78186,0.242719,0.646506,1.26479
12023893958,-85,-101,-23,-4,-7,5,0,-19,12023893167,-0.583984,0.107422,0.980469,12023893167,23.9375,-43.6875,45.4375,12023893167,-0.093811,0.322205,0.52533,0.78186,0.242719,0.646506,1.26479
12023893958,-25,-57,-14,-4,-6,-1,-3,3,12023893167,-0.583984,0.107422,0.980469,12023893167,23.9375,-43.6875,45.4375,12023893167,-0.093811,0.322205,0.52533,0.78186,0.242719,0.646506,1.26479
12023914920,-3,1,6,2,-1,3,2,22,12023893167,-0.583984,0.107422,0.980469,12023893167,23.9375,-43.6875,45.4375,12023893167,-0.093811,0.322205,0.52533,0.78186,0.242719,0.646506,1.26479
12023914920,36,42,7,2,6,6,3,11,12023915716,-0.595703,0.13916,0.903809,12023915716,49.3125,-32.8125,67.75,12023915716,-0.0808105,0.322021,0.532227,0.778687,0.271405,0.627999,1.2876
12023916480,-28,3,1,-3,-6,3,2,-4,12023915716,-0.595703,0.13916,0.903809,12023915716,49.3125,-32.8125,67.75,12023915716,-0.0808105,0.322021,0.532227,0.778687,0.271405,0.627999,1.2876
12023916480,32,18,-8,-6,-2,-7,-3,5,12023915716,-0.595703,0.13916,0.903809,12023915716,49.3125,-32.8125,67.75,12023915716,-0.0808105,0.322021,0.532227,0.778687,0.271405,0.627999,1.2876
12023929214,2,25,8,4,1,4,1,-6,12023915716,-0.595703,0.13916,0.903809,12023915716,49.3125,-32.8125,67.75,12023915716,-0.0808105,0.322021,0.532227,0.778687,0.271405,0.627999,1.2876
12023929214,-1,-11,0,-3,1,-3,-2,15,12023930006,-0.64209,0.342285,0.740723,12023930006,37.0625,-28.1875,57.5,12023930006,-0.069397,0.323792,0.53833,0.774902,0.299494,0.614476,1.30993
12023936042,-1,9,2,-2,-2,3,-2,-9,12023930006,-0.64209,0.342285,0.740723,12023930006,37.0625,-28.1875,57.5,12023930006,-0.069397,0.323792,0.53833,0.774902,0.299494,0.614476,1.30993
12023936042,3,21,-1,1,-3,-4,-2,-18,12023930006,-0.64209,0.342285,0.740723,12023930006,37.0625,-28.1875,57.5,12023930006,-0.069397,0.323792,0.53833,0.774902,0.299494,0.614476,1.30993
12023952434,32,28,7,4,-5,-3,1,11,12023930006,-0.64209,0.342285,0.740723,12023930006,37.0625,-28.1875,57.5,12023930006,-0.069397,0.323792,0.53833,0.774902,0.299494,0.614476,1.30993
12023952434,-30,-29,-5,1,2,0,2,44,12023953198,-0.546875,0.442871,0.716797,12023953198,15,-32.375,23.6875,12023953198,-0.0610962,0.32251,0.541443,0.773926,0.313895,0.600867,1.31877
12023954000,28,27,2,-5,-1,-5,-6,48,12023953198,-0.546875,0.442871,0.716797,12023953198,15,-32.375,23.6875,12023953198,-0.0610962,0.32251,0.541443,0.773926,0.313895,0.600867,1.31877
12023954000,2,1,-1,-1,4,5,-2,32,12023953198,-0.546875,0.442871,0.716797,12023953198,15,-32.375,23.6875,12023953198,-0.0610962,0.32251,0.541443,0.773926,0.313895,0.600867,1.31877
12023974866,-48,-37,-8,-1,-4,-2,4,21,12023953198,-0.546875,0.442871,0.716797,12023953198,15,-32.375,23.6875,12023953198,-0.0610962,0.32251,0.541443,0.773926,0.313895,0.600867,1.31877
12023974866,41,11,-3,-1,2,1,-5,-1,12023975662,-0.51416,0.44873,0.765137,12023975662,24.5,-33,-7.625,12023975662,-0.0531006,0.321167,0.539856,0.776184,0.323632,0.589449,1.31435
12023976459,-69,-41,-5,2,0,-4,1,-9,12023975662,-0.51416,0.44873,0.765137,12023975662,24.5,-33,-7.625,12023975662,-0.0531006,0.321167,0.539856,0.776184,0.323632,0.589449,1.31435
12023976459,22,3,-2,-6,-9,-8,3,41,12023975662,-0.51416,0.44873,0.765137,12023975662,24.5,-33,-7.625,12023975662,-0.0531006,0.321167,0.539856,0.776184,0.323632,0.589449,1.31435
12023989180,54,85,23,10,3,-1,-4,-13,12023975662,-0.51416,0.44873,0.765137,12023975662,24.5,-33,-7.625,12023975662,-0.0531006,0.321167,0.539856,0.776184,0.323632,0.589449,1.31435
12023989180,-56,-26,-9,-6,12,24,11,-78,12023989983,-0.611328,0.544922,0.739746,12023989983,36.0625,-36.0625,-20.5,12023989983,-0.0437622,0.321777,0.535706,0.779419,0.337077,0.580553,1.30582
12023996018,40,29,6,1,1,1,13,73,12023989983,-0.611328,0.544922,0.739746,12023989983,36.0625,-36.0625,-20.5,12023989983,-0.0437622,0.321777,0.535706,0.779419,0.337077,0.580553,1.30582
12023996018,33,-11,-2,-4,-5,-7,-5,-14,12023989983,-0.611328,0.544922,0.739746,12023989983,36.0625,-36.0625,-20.5,12023989983,-0.0437622,0.321777,0.535706,0.779419,0.337077,0.580553,1.30582
12024012448,-11,8,2,1,2,0,-7,-44,12023989983,-0.611328,0.544922,0.739746,12023989983,36.0625,-36.0625,-20.5,12023989983,-0.0437622,0.321777,0.535706,0.779419,0.337077,0.580553,1.30582
12024012448,-14,5,-7,-6,-2,9,9,-7,12024013173,-0.618164,0.644043,0.619141,12024013173,27.75,-41.5625,-27.375,12024013173,-0.03479,0.322205,0.531006,0.782898,0.349282,0.572166,1.2956
12024013966,-25,-40,-8,-1,-4,-5,1,5,12024013173,-0.618164,0.644043,0.619141,12024013173,27.75,-41.5625,-27.375,12024013173,-0.03479,0.322205,0.531006,0.782898,0.349282,0.572166,1.2956
12024013966,-3,11,3,2,1,0,-11,-49,12024013173,-0.618164,0.644043,0.619141,12024013173,27.75,-41.5625,-27.375,12024013173,-0.03479,0.322205,0.531006,0.782898,0.349282,0.572166,1.2956
12024034863,-85,-99,-19,-7,-5,-4,7,18,12024013173,-0.618164,0.644043,0.619141,12024013173,27.75,-41.5625,-27.375,12024013173,-0.03479,0.322205,0.531006,0.782898,0.349282,0.572166,1.2956
12024034863,120,82,12,3,0,-10,-2,51,12024035655,-0.509277,0.597656,0.708496,12024035655,-3,-42.6875,-30.0625,12024035655,-0.0297852,0.317993,0.527893,0.786926,0.348111,0.560868,1.2829
12024036450,-37,-18,-10,1,7,11,-5,-62,12024035655,-0.509277,0.597656,0.708496,12024035655,-3,-42.6875,-30.0625,12024035655,-0.0297852,0.317993,0.527893,0.786926,0.348111,0.560868,1.2829
12024036450,55,31,3,-1,-8,-6,-7,34,12024035655,-0.509277,0.597656,0.708496,12024035655,-3,-42.6875,-30.0625,12024035655,-0.0297852,0.317993,0.527893,0.786926,0.348111,0.560868,1.2829
12024049214,-33,-25,6,6,8,12,11,-87,12024035655,-0.509277,0.597656,0.708496,12024035655,-3,-42.6875,-30.0625,12024035655,-0.0297852,0.317993,0.527893,0.786926,0.348111,0.560868,1.2829
