timestamp,emg1,emg2,emg3,emg4,emg5,emg6,emg7,emg8,timestamp_accelerometer,accelerometer-x,accelerometer-y,accelerometer-z,timestamp_gyro,gyro-x,gyro-y,gyro-z,timestamp_orientation,orientation-x,orientation-y,orientation-z,,orientation-w,roll,pitch,yaw
140734799966975,1,0,0,0,0,0,0,0,140734799804352,0,2.76656e+19,4.59163e-41,140734799811190,0,0,0,140734799804384,0,0,0,0,0,0,0
9810897318,-3,-4,3,-1,-3,-1,-1,1,140734799804352,0,2.76656e+19,4.59163e-41,140734799811190,0,0,0,140734799804384,0,0,0,0,0,0,0
9810897318,-2,-2,-3,0,-2,1,-2,-4,140734799804352,0,2.76656e+19,4.59163e-41,140734799811190,0,0,0,140734799804384,0,0,0,0,0,0,0
9810905468,1,-4,-1,-2,-3,0,1,3,140734799804352,0,2.76656e+19,4.59163e-41,140734799811190,0,0,0,140734799804384,0,0,0,0,0,0,0
9810905468,-3,-3,-7,0,-1,1,-3,-2,9810906287,0.0180664,-0.211426,0.990723,9810906287,-1.375,-1,0.875,9810906287,-0.106812,-0.00671387,-0.0358276,0.993591,-0.213437,-0.0209968,-0.069834
9810920471,-5,-5,-16,-4,0,1,-6,-3,9810906287,0.0180664,-0.211426,0.990723,9810906287,-1.375,-1,0.875,9810906287,-0.106812,-0.00671387,-0.0358276,0.993591,-0.213437,-0.0209968,-0.069834
9810920471,0,-1,-1,2,-1,-6,-6,-1,9810906287,0.0180664,-0.211426,0.990723,9810906287,-1.375,-1,0.875,9810906287,-0.106812,-0.00671387,-0.0358276,0.993591,-0.213437,-0.0209968,-0.069834
9810921242,-3,-1,3,-5,0,-3,-7,0,9810906287,0.0180664,-0.211426,0.990723,9810906287,-1.375,-1,0.875,9810906287,-0.106812,-0.00671387,-0.0358276,0.993591,-0.213437,-0.0209968,-0.069834
9810921242,-6,-7,-4,-4,-1,-5,-7,-4,9810927423,0.0249023,-0.214355,0.994629,9810927423,-1.5625,-0.0625,0.5,9810927423,-0.107056,-0.00671387,-0.0357666,0.99353,-0.213921,-0.0210004,-0.0697047
9810934842,4,2,-10,1,0,-5,2,3,9810927423,0.0249023,-0.214355,0.994629,9810927423,-1.5625,-0.0625,0.5,9810927423,-0.107056,-0.00671387,-0.0357666,0.99353,-0.213921,-0.0210004,-0.0697047
9810934842,-1,-1,-3,-7,-4,0,1,1,9810927423,0.0249023,-0.214355,0.994629,9810927423,-1.5625,-0.0625,0.5,9810927423,-0.107056,-0.00671387,-0.0357666,0.99353,-0.213921,-0.0210004,-0.0697047
9810942995,-3,-1,-2,2,-6,-3,2,-8,9810927423,0.0249023,-0.214355,0.994629,9810927423,-1.5625,-0.0625,0.5,9810927423,-0.107056,-0.00671387,-0.0357666,0.99353,-0.213921,-0.0210004,-0.0697047
9810942995,-1,-2,9,0,-6,-5,0,0,9810943783,0.0317383,-0.221191,1.00244,9810943783,-0.3125,0.6875,0.1875,9810943783,-0.107056,-0.0067749,-0.0357666,0.99353,-0.213917,-0.0211217,-0.0696918
9810957298,5,-1,-1,4,-3,1,0,-1,9810943783,0.0317383,-0.221191,1.00244,9810943783,-0.3125,0.6875,0.1875,9810943783,-0.107056,-0.0067749,-0.0357666,0.99353,-0.213917,-0.0211217,-0.0696918
9810957298,-2,0,-7,-2,-4,-3,1,1,9810943783,0.0317383,-0.221191,1.00244,9810943783,-0.3125,0.6875,0.1875,9810943783,-0.107056,-0.0067749,-0.0357666,0.99353,-0.213917,-0.0211217,-0.0696918
9810965485,-3,-6,0,-3,-6,-5,0,-6,9810943783,0.0317383,-0.221191,1.00244,9810943783,-0.3125,0.6875,0.1875,9810943783,-0.107056,-0.0067749,-0.0357666,0.99353,-0.213917,-0.0211217,-0.0696918
9810965485,2,-3,1,-2,-1,-2,-1,-3,9810966289,0.0268555,-0.227539,1.00439,9810966289,2.25,0.75,0.125,9810966289,-0.106812,-0.00671387,-0.0357666,0.993591,-0.213437,-0.0209838,-0.0697123
9810988712,-6,-7,-7,-5,3,0,-5,-3,9810966289,0.0268555,-0.227539,1.00439,9810966289,2.25,0.75,0.125,9810966289,-0.106812,-0.00671387,-0.0357666,0.993591,-0.213437,-0.0209838,-0.0697123
9810988712,-2,-8,-2,-3,7,0,-7,-2,9810966289,0.0268555,-0.227539,1.00439,9810966289,2.25,0.75,0.125,9810966289,-0.106812,-0.00671387,-0.0357666,0.993591,-0.213437,-0.0209838,-0.0697123
9810989456,2,-3,0,4,6,0,-4,-1,9810966289,0.0268555,-0.227539,1.00439,9810966289,2.25,0.75,0.125,9810966289,-0.106812,-0.00671387,-0.0357666,0.993591,-0.213437,-0.0209838,-0.0697123
9810989456,6,0,-1,-2,1,0,0,2,9810990265,0.0151367,-0.21582,0.997559,9810990265,0.625,-0.4375,-0.5,9810990265,-0.106812,-0.00671387,-0.0357666,0.993591,-0.213437,-0.0209838,-0.0697123
9810994833,1,-1,-1,-3,-2,-2,-1,-2,9810990265,0.0151367,-0.21582,0.997559,9810990265,0.625,-0.4375,-0.5,9810990265,-0.106812,-0.00671387,-0.0357666,0.993591,-0.213437,-0.0209838,-0.0697123
9810994833,-3,5,3,-3,1,3,-5,1,9810990265,0.0151367,-0.21582,0.997559,9810990265,0.625,-0.4375,-0.5,9810990265,-0.106812,-0.00671387,-0.0357666,0.993591,-0.213437,-0.0209838,-0.0697123
9811003043,0,5,1,0,-2,-3,0,1,9810990265,0.0151367,-0.21582,0.997559,9810990265,0.625,-0.4375,-0.5,9810990265,-0.106812,-0.00671387,-0.0357666,0.993591,-0.213437,-0.0209838,-0.0697123
9811003043,6,-6,-6,1,-1,-3,-4,-4,9811003805,0.0141602,-0.211914,0.986328,9811003805,1.1875,-1.1875,-0.125,9811003805,-0.106567,-0.00683594,-0.0357666,0.993591,-0.212933,-0.021209,-0.0696899
9811017323,-3,1,-2,0,-2,-6,1,-4,9811003805,0.0141602,-0.211914,0.986328,9811003805,1.1875,-1.1875,-0.125,9811003805,-0.106567,-0.00683594,-0.0357666,0.993591,-0.212933,-0.021209,-0.0696899
9811017323,2,-2,1,-2,-4,0,3,1,9811003805,0.0141602,-0.211914,0.986328,9811003805,1.1875,-1.1875,-0.125,9811003805,-0.106567,-0.00683594,-0.0357666,0.993591,-0.212933,-0.021209,-0.0696899
9811025495,-5,2,6,-2,-2,1,4,1,9811003805,0.0141602,-0.211914,0.986328,9811003805,1.1875,-1.1875,-0.125,9811003805,-0.106567,-0.00683594,-0.0357666,0.993591,-0.212933,-0.021209,-0.0696899
9811025495,-7,-9,-8,-4,3,-3,-4,-3,9811026321,0.0175781,-0.213379,0.983887,9811026321,-0.875,-1.6875,0.3125,9811026321,-0.106689,-0.00708008,-0.0356445,0.993591,-0.213167,-0.0216769,-0.0693934
9811040434,5,6,-5,-3,-4,-1,1,0,9811026321,0.0175781,-0.213379,0.983887,9811026321,-0.875,-1.6875,0.3125,9811026321,-0.106689,-0.00708008,-0.0356445,0.993591,-0.213167,-0.0216769,-0.0693934
9811040434,6,5,-5,-2,-2,-3,1,4,9811026321,0.0175781,-0.213379,0.983887,9811026321,-0.875,-1.6875,0.3125,9811026321,-0.106689,-0.00708008,-0.0356445,0.993591,-0.213167,-0.0216769,-0.0693934
9811041217,-3,-6,1,-3,-3,-1,-3,-1,9811026321,0.0175781,-0.213379,0.983887,9811026321,-0.875,-1.6875,0.3125,9811026321,-0.106689,-0.00708008,-0.0356445,0.993591,-0.213167,-0.0216769,-0.0693934
9811041217,0,-2,-10,0,2,1,1,0,9811047357,0.0185547,-0.216309,0.977539,9811047357,-1.6875,-1.125,0.9375,9811047357,-0.107056,-0.00720215,-0.0354614,0.993591,-0.213907,-0.0219064,-0.0689975
9811054790,2,-4,-5,-3,-6,-6,0,6,9811047357,0.0185547,-0.216309,0.977539,9811047357,-1.6875,-1.125,0.9375,9811047357,-0.107056,-0.00720215,-0.0354614,0.993591,-0.213907,-0.0219064,-0.0689975
9811054790,-10,-3,-1,-2,-4,1,2,-2,9811047357,0.0185547,-0.216309,0.977539,9811047357,-1.6875,-1.125,0.9375,9811047357,-0.107056,-0.00720215,-0.0354614,0.993591,-0.213907,-0.0219064,-0.0689975
9811063030,0,-6,-10,-1,-1,-1,-4,-1,9811047357,0.0185547,-0.216309,0.977539,9811047357,-1.6875,-1.125,0.9375,9811047357,-0.107056,-0.00720215,-0.0354614,0.993591,-0.213907,-0.0219064,-0.0689975
9811063030,-3,2,-1,-3,-3,2,2,-1,9811063824,0.0292969,-0.226074,0.989258,9811063824,0.875,0.0625,1.875,9811063824,-0.106995,-0.00720215,-0.0351562,0.993591,-0.213787,-0.0218368,-0.0683903
9811077281,-3,-3,-7,4,-3,2,0,4,9811063824,0.0292969,-0.226074,0.989258,9811063824,0.875,0.0625,1.875,9811063824,-0.106995,-0.00720215,-0.0351562,0.993591,-0.213787,-0.0218368,-0.0683903
9811077281,-1,-9,-7,-2,0,-3,-4,-4,9811063824,0.0292969,-0.226074,0.989258,9811063824,0.875,0.0625,1.875,9811063824,-0.106995,-0.00720215,-0.0351562,0.993591,-0.213787,-0.0218368,-0.0683903
9811085534,8,6,-4,-5,-1,-2,-2,0,9811063824,0.0292969,-0.226074,0.989258,9811063824,0.875,0.0625,1.875,9811063824,-0.106995,-0.00720215,-0.0351562,0.993591,-0.213787,-0.0218368,-0.0683903
9811085534,4,5,1,0,1,-1,2,3,9811086319,0.0258789,-0.217773,0.986816,9811086319,-0.1875,0.1875,0.9375,9811086319,-0.107056,-0.00726318,-0.0351562,0.993591,-0.213907,-0.0219624,-0.0683765
9811100539,-5,-3,4,-7,2,-3,-1,-6,9811086319,0.0258789,-0.217773,0.986816,9811086319,-0.1875,0.1875,0.9375,9811086319,-0.107056,-0.00726318,-0.0351562,0.993591,-0.213907,-0.0219624,-0.0683765
9811100539,-2,-3,-10,0,4,4,0,-2,9811086319,0.0258789,-0.217773,0.986816,9811086319,-0.1875,0.1875,0.9375,9811086319,-0.107056,-0.00726318,-0.0351562,0.993591,-0.213907,-0.0219624,-0.0683765
9811101275,1,8,11,-1,1,-1,-2,2,9811086319,0.0258789,-0.217773,0.986816,9811086319,-0.1875,0.1875,0.9375,9811086319,-0.107056,-0.00726318,-0.0351562,0.993591,-0.213907,-0.0219624,-0.0683765
9811101275,-8,-5,-5,-6,3,-1,-5,-2,9811107357,0.0263672,-0.225098,0.987305,9811107357,0.1875,0.0625,1,9811107357,-0.107117,-0.00726318,-0.0349731,0.993591,-0.214034,-0.0219274,-0.0680108
9811114771,-2,-10,-8,-5,1,-1,-5,0,9811107357,0.0263672,-0.225098,0.987305,9811107357,0.1875,0.0625,1,9811107357,-0.107117,-0.00726318,-0.0349731,0.993591,-0.214034,-0.0219274,-0.0680108
9811114771,0,3,5,0,-5,1,-4,-2,9811107357,0.0263672,-0.225098,0.987305,9811107357,0.1875,0.0625,1,9811107357,-0.107117,-0.00726318,-0.0349731,0.993591,-0.214034,-0.0219274,-0.0680108
9811123022,-2,-2,3,-7,-3,1,-2,-1,9811107357,0.0263672,-0.225098,0.987305,9811107357,0.1875,0.0625,1,9811107357,-0.107117,-0.00726318,-0.0349731,0.993591,-0.214034,-0.0219274,-0.0680108
9811123022,-6,-3,-3,-2,-6,0,2,4,9811123802,0.0307617,-0.219238,0.991211,9811123802,1.25,0.4375,0.3125,9811123802,-0.106934,-0.00726318,-0.0349121,0.993591,-0.213663,-0.0219016,-0.0678918
9811137388,0,0,5,-2,-2,0,5,-1,9811123802,0.0307617,-0.219238,0.991211,9811123802,1.25,0.4375,0.3125,9811123802,-0.106934,-0.00726318,-0.0349121,0.993591,-0.213663,-0.0219016,-0.0678918
9811137388,-1,4,0,-1,-3,-1,-4,-1,9811123802,0.0307617,-0.219238,0.991211,9811123802,1.25,0.4375,0.3125,9811123802,-0.106934,-0.00726318,-0.0349121,0.993591,-0.213663,-0.0219016,-0.0678918
9811145504,-5,-2,-13,-2,-1,-3,0,-2,9811123802,0.0307617,-0.219238,0.991211,9811123802,1.25,0.4375,0.3125,9811123802,-0.106934,-0.00726318,-0.0349121,0.993591,-0.213663,-0.0219016,-0.0678918
9811145504,-1,0,-4,2,-1,0,5,-2,9811146271,0.0249023,-0.217773,0.995605,9811146271,0.1875,0,-0.5,9811146271,-0.106934,-0.00726318,-0.0349121,0.993591,-0.213663,-0.0219016,-0.0678918
9811160505,4,2,10,-4,-1,0,-2,1,9811146271,0.0249023,-0.217773,0.995605,9811146271,0.1875,0,-0.5,9811146271,-0.106934,-0.00726318,-0.0349121,0.993591,-0.213663,-0.0219016,-0.0678918
9811160505,2,-2,-12,0,2,1,-6,-2,9811146271,0.0249023,-0.217773,0.995605,9811146271,0.1875,0,-0.5,9811146271,-0.106934,-0.00726318,-0.0349121,0.993591,-0.213663,-0.0219016,-0.0678918
9811161327,-2,-6,-1,1,0,0,-1,0,9811146271,0.0249023,-0.217773,0.995605,9811146271,0.1875,0,-0.5,9811146271,-0.106934,-0.00726318,-0.0349121,0.993591,-0.213663,-0.0219016,-0.0678918
9811161327,0,1,-4,-1,-6,1,-4,-1,9811167534,0.0229492,-0.224121,0.990723,9811167534,1.3125,0.5625,-0.5625,9811167534,-0.106812,-0.00720215,-0.0350342,0.993591,-0.213416,-0.0217978,-0.0681497
9811175026,-8,-3,7,-2,-5,3,1,0,9811167534,0.0229492,-0.224121,0.990723,9811167534,1.3125,0.5625,-0.5625,9811167534,-0.106812,-0.00720215,-0.0350342,0.993591,-0.213416,-0.0217978,-0.0681497
9811175026,-6,-5,-6,2,-2,-5,2,-5,9811167534,0.0229492,-0.224121,0.990723,9811167534,1.3125,0.5625,-0.5625,9811167534,-0.106812,-0.00720215,-0.0350342,0.993591,-0.213416,-0.0217978,-0.0681497
9811183178,0,2,-1,0,2,-3,-1,4,9811167534,0.0229492,-0.224121,0.990723,9811167534,1.3125,0.5625,-0.5625,9811167534,-0.106812,-0.00720215,-0.0350342,0.993591,-0.213416,-0.0217978,-0.0681497
9811183178,4,1,6,-2,-2,-1,1,0,9811183867,0.0205078,-0.213867,0.990723,9811183867,-0.0625,-0.875,-1.1875,9811183867,-0.106812,-0.00738525,-0.0352173,0.993591,-0.213402,-0.0222009,-0.0684759
9811197404,3,0,-10,5,0,1,-1,0,9811183867,0.0205078,-0.213867,0.990723,9811183867,-0.0625,-0.875,-1.1875,9811183867,-0.106812,-0.00738525,-0.0352173,0.993591,-0.213402,-0.0222009,-0.0684759
9811197404,2,0,-4,-3,-5,-7,-2,3,9811183867,0.0205078,-0.213867,0.990723,9811183867,-0.0625,-0.875,-1.1875,9811183867,-0.106812,-0.00738525,-0.0352173,0.993591,-0.213402,-0.0222009,-0.0684759
9811205692,2,1,-14,-4,-1,-3,-2,-1,9811183867,0.0205078,-0.213867,0.990723,9811183867,-0.0625,-0.875,-1.1875,9811183867,-0.106812,-0.00738525,-0.0352173,0.993591,-0.213402,-0.0222009,-0.0684759
9811205692,0,-9,-8,-5,-1,-1,-6,-6,9811206342,0.0151367,-0.197754,0.986328,9811206342,-0.9375,-0.9375,-0.3125,9811206342,-0.10675,-0.00732422,-0.0352173,0.993591,-0.213282,-0.0220753,-0.0684897
9811220656,1,3,-8,5,-4,-4,-3,1,9811206342,0.0151367,-0.197754,0.986328,9811206342,-0.9375,-0.9375,-0.3125,9811206342,-0.10675,-0.00732422,-0.0352173,0.993591,-0.213282,-0.0220753,-0.0684897
9811220656,-1,-5,-3,-9,0,-2,-3,-4,9811206342,0.0151367,-0.197754,0.986328,9811206342,-0.9375,-0.9375,-0.3125,9811206342,-0.10675,-0.00732422,-0.0352173,0.993591,-0.213282,-0.0220753,-0.0684897
9811221388,3,-8,6,3,0,-4,3,-3,9811206342,0.0151367,-0.197754,0.986328,9811206342,-0.9375,-0.9375,-0.3125,9811206342,-0.10675,-0.00732422,-0.0352173,0.993591,-0.213282,-0.0220753,-0.0684897
9811221388,-5,-7,-2,-3,2,0,-6,-5,9811227594,0.0239258,-0.209961,0.991211,9811227594,0.0625,-0.0625,1.0625,9811227594,-0.106689,-0.00732422,-0.0350342,0.993591,-0.213161,-0.0220319,-0.0681257
9811235027,3,0,-8,-2,2,-2,-1,3,9811227594,0.0239258,-0.209961,0.991211,9811227594,0.0625,-0.0625,1.0625,9811227594,-0.106689,-0.00732422,-0.0350342,0.993591,-0.213161,-0.0220319,-0.0681257
9811235027,-1,3,2,-3,-2,0,-2,-1,9811227594,0.0239258,-0.209961,0.991211,9811227594,0.0625,-0.0625,1.0625,9811227594,-0.106689,-0.00732422,-0.0350342,0.993591,-0.213161,-0.0220319,-0.0681257
9811243257,-3,-5,-3,-1,-2,-3,-4,0,9811227594,0.0239258,-0.209961,0.991211,9811227594,0.0625,-0.0625,1.0625,9811227594,-0.106689,-0.00732422,-0.0350342,0.993591,-0.213161,-0.0220319,-0.0681257
9811243257,0,0,-8,2,-2,-1,3,2,9811243877,0.0292969,-0.217773,0.994141,9811243877,0.5,1.125,0.5,9811243877,-0.106628,-0.00726318,-0.0349731,0.993652,-0.213054,-0.0218942,-0.0680221
9811257381,0,6,-2,-4,1,0,0,0,9811243877,0.0292969,-0.217773,0.994141,9811243877,0.5,1.125,0.5,9811243877,-0.106628,-0.00726318,-0.0349731,0.993652,-0.213054,-0.0218942,-0.0680221
9811257381,2,3,1,3,1,-5,-3,0,9811243877,0.0292969,-0.217773,0.994141,9811243877,0.5,1.125,0.5,9811243877,-0.106628,-0.00726318,-0.0349731,0.993652,-0.213054,-0.0218942,-0.0680221
9811265471,-1,-3,-9,-5,-2,1,-8,-4,9811243877,0.0292969,-0.217773,0.994141,9811243877,0.5,1.125,0.5,9811243877,-0.106628,-0.00726318,-0.0349731,0.993652,-0.213054,-0.0218942,-0.0680221
9811265471,1,7,0,-2,-3,3,3,3,9811266270,0.0224609,-0.21875,0.999023,9811266270,1.625,0.625,0.75,9811266270,-0.106384,-0.00714111,-0.0348511,0.993652,-0.212567,-0.0216085,-0.0678081
9811280463,-5,-5,0,-2,-5,-5,-6,-2,9811266270,0.0224609,-0.21875,0.999023,9811266270,1.625,0.625,0.75,9811266270,-0.106384,-0.00714111,-0.0348511,0.993652,-0.212567,-0.0216085,-0.0678081
9811280463,-7,-12,-5,3,0,2,0,1,9811266270,0.0224609,-0.21875,0.999023,9811266270,1.625,0.625,0.75,9811266270,-0.106384,-0.00714111,-0.0348511,0.993652,-0.212567,-0.0216085,-0.0678081
9811281233,1,2,-7,-2,-4,-5,-1,4,9811266270,0.0224609,-0.21875,0.999023,9811266270,1.625,0.625,0.75,9811266270,-0.106384,-0.00714111,-0.0348511,0.993652,-0.212567,-0.0216085,-0.0678081
9811281233,0,0,-12,-1,0,-2,-1,-3,9811287357,0.0249023,-0.225098,0.98877,9811287357,2.125,0.25,0.75,9811287357,-0.10614,-0.00714111,-0.034729,0.993713,-0.212085,-0.0215664,-0.0675725
9811294801,-3,-7,-6,-1,-1,1,0,-3,9811287357,0.0249023,-0.225098,0.98877,9811287357,2.125,0.25,0.75,9811287357,-0.10614,-0.00714111,-0.034729,0.993713,-0.212085,-0.0215664,-0.0675725
9811294801,-1,-2,4,-1,-2,-5,-4,-1,9811287357,0.0249023,-0.225098,0.98877,9811287357,2.125,0.25,0.75,9811287357,-0.10614,-0.00714111,-0.034729,0.993713,-0.212085,-0.0215664,-0.0675725
9811302965,6,2,11,0,-2,3,0,0,9811287357,0.0249023,-0.225098,0.98877,9811287357,2.125,0.25,0.75,9811287357,-0.10614,-0.00714111,-0.034729,0.993713,-0.212085,-0.0215664,-0.0675725
9811302965,-5,-2,-1,-2,0,-6,-6,-3,9811303770,0.0268555,-0.222168,0.984375,9811303770,1.3125,-0.3125,-0.0625,9811303770,-0.106018,-0.00720215,-0.034729,0.993713,-0.211833,-0.0216792,-0.0675615
9811317339,-3,3,-13,2,0,3,-4,-7,9811303770,0.0268555,-0.222168,0.984375,9811303770,1.3125,-0.3125,-0.0625,9811303770,-0.106018,-0.00720215,-0.034729,0.993713,-0.211833,-0.0216792,-0.0675615
9811317339,3,-1,-4,-3,2,-4,1,-5,9811303770,0.0268555,-0.222168,0.984375,9811303770,1.3125,-0.3125,-0.0625,9811303770,-0.106018,-0.00720215,-0.034729,0.993713,-0.211833,-0.0216792,-0.0675615
9811325527,-7,-3,-6,-2,-2,1,-1,-5,9811303770,0.0268555,-0.222168,0.984375,9811303770,1.3125,-0.3125,-0.0625,9811303770,-0.106018,-0.00720215,-0.034729,0.993713,-0.211833,-0.0216792,-0.0675615
9811325527,-10,-14,-7,-5,-5,-4,-5,-3,9811326335,0.0224609,-0.215332,0.978516,9811326335,1.3125,0.4375,-0.625,9811326335,-0.105835,-0.00720215,-0.03479,0.993713,-0.21146,-0.0216794,-0.0676858
9811340506,5,1,5,3,-6,-3,-2,3,9811326335,0.0224609,-0.215332,0.978516,9811326335,1.3125,0.4375,-0.625,9811326335,-0.105835,-0.00720215,-0.03479,0.993713,-0.21146,-0.0216794,-0.0676858
9811340506,-3,2,6,-1,-6,2,-4,-3,9811326335,0.0224609,-0.215332,0.978516,9811326335,1.3125,0.4375,-0.625,9811326335,-0.105835,-0.00720215,-0.03479,0.993713,-0.21146,-0.0216794,-0.0676858
9811341237,-5,-3,-7,-2,2,-3,-2,-1,9811326335,0.0224609,-0.215332,0.978516,9811326335,1.3125,0.4375,-0.625,9811326335,-0.105835,-0.00720215,-0.03479,0.993713,-0.21146,-0.0216794,-0.0676858
9811341237,-3,7,1,-2,0,-1,-1,2,9811347352,0.0239258,-0.222656,0.987793,9811347352,0.125,0.3125,-0.1875,9811347352,-0.105896,-0.00720215,-0.03479,0.993713,-0.211584,-0.0216837,-0.0676849
9811354798,8,5,-2,-3,2,-5,-1,2,9811347352,0.0239258,-0.222656,0.987793,9811347352,0.125,0.3125,-0.1875,9811347352,-0.105896,-0.00720215,-0.03479,0.993713,-0.211584,-0.0216837,-0.0676849
9811354798,5,-6,-5,-3,1,0,2,4,9811347352,0.0239258,-0.222656,0.987793,9811347352,0.125,0.3125,-0.1875,9811347352,-0.105896,-0.00720215,-0.03479,0.993713,-0.211584,-0.0216837,-0.0676849
9811363000,-1,-5,0,0,1,-2,4,-4,9811347352,0.0239258,-0.222656,0.987793,9811347352,0.125,0.3125,-0.1875,9811347352,-0.105896,-0.00720215,-0.03479,0.993713,-0.211584,-0.0216837,-0.0676849
9811363000,-1,-2,-3,2,-2,-3,0,-4,9811363816,0.0332031,-0.225098,0.982422,9811363816,-1.375,-0.125,-0.6875,9811363816,-0.106262,-0.00732422,-0.0349731,0.993652,-0.212306,-0.0219899,-0.0680146
9811377341,0,-5,0,-1,-1,2,2,-4,9811363816,0.0332031,-0.225098,0.982422,9811363816,-1.375,-0.125,-0.6875,9811363816,-0.106262,-0.00732422,-0.0349731,0.993652,-0.212306,-0.0219899,-0.0680146
9811377341,-10,-8,-10,-1,-3,-2,-3,-4,9811363816,0.0332031,-0.225098,0.982422,9811363816,-1.375,-0.125,-0.6875,9811363816,-0.106262,-0.00732422,-0.0349731,0.993652,-0.212306,-0.0219899,-0.0680146
9811393000,-4,-4,18,-2,-2,-3,0,-4,9811363816,0.0332031,-0.225098,0.982422,9811363816,-1.375,-0.125,-0.6875,9811363816,-0.106262,-0.00732422,-0.0349731,0.993652,-0.212306,-0.0219899,-0.0680146
9811393000,3,-3,2,-2,-3,-2,-3,3,9811393795,0.0253906,-0.219727,0.999023,9811393795,-0.0625,0.125,-1,9811393795,-0.106262,-0.00732422,-0.0349731,0.993652,-0.212306,-0.0219899,-0.0680146
9811400522,-7,-3,-6,2,-1,-1,-2,-2,9811393795,0.0253906,-0.219727,0.999023,9811393795,-0.0625,0.125,-1,9811393795,-0.106262,-0.00732422,-0.0349731,0.993652,-0.212306,-0.0219899,-0.0680146
9811400522,0,-3,-2,1,-2,1,-2,-2,9811393795,0.0253906,-0.219727,0.999023,9811393795,-0.0625,0.125,-1,9811393795,-0.106262,-0.00732422,-0.0349731,0.993652,-0.212306,-0.0219899,-0.0680146
9811401240,4,1,11,2,-1,1,-4,2,9811393795,0.0253906,-0.219727,0.999023,9811393795,-0.0625,0.125,-1,9811393795,-0.106262,-0.00732422,-0.0349731,0.993652,-0.212306,-0.0219899,-0.0680146
9811401240,-5,-5,0,-1,-1,1,-3,2,9811407561,0.0234375,-0.222168,0.990234,9811407561,0.0625,0.0625,-0.8125,9811407561,-0.106323,-0.00732422,-0.0349731,0.993652,-0.21243,-0.0219941,-0.0680137
9811414973,-2,-2,-10,-3,-4,4,-6,0,9811407561,0.0234375,-0.222168,0.990234,9811407561,0.0625,0.0625,-0.8125,9811407561,-0.106323,-0.00732422,-0.0349731,0.993652,-0.21243,-0.0219941,-0.0680137
9811414973,-2,3,-4,-8,-1,0,0,2,9811407561,0.0234375,-0.222168,0.990234,9811407561,0.0625,0.0625,-0.8125,9811407561,-0.106323,-0.00732422,-0.0349731,0.993652,-0.21243,-0.0219941,-0.0680137
9811423232,-3,0,-14,-1,-4,-2,3,-2,9811407561,0.0234375,-0.222168,0.990234,9811407561,0.0625,0.0625,-0.8125,9811407561,-0.106323,-0.00732422,-0.0349731,0.993652,-0.21243,-0.0219941,-0.0680137
9811423232,-1,-4,-8,-1,0,2,-8,-4,9811423869,0.0239258,-0.219238,0.991211,9811423869,-0.875,0.3125,-1.5625,9811423869,-0.106506,-0.00732422,-0.0352173,0.993652,-0.212799,-0.022059,-0.0684975
9811437473,-5,-1,3,-4,1,-2,2,-1,9811423869,0.0239258,-0.219238,0.991211,9811423869,-0.875,0.3125,-1.5625,9811423869,-0.106506,-0.00732422,-0.0352173,0.993652,-0.212799,-0.022059,-0.0684975
9811437473,1,1,-1,0,1,1,-1,0,9811423869,0.0239258,-0.219238,0.991211,9811423869,-0.875,0.3125,-1.5625,9811423869,-0.106506,-0.00732422,-0.0352173,0.993652,-0.212799,-0.022059,-0.0684975
9811445573,-5,-5,-8,-4,4,-1,-4,1,9811423869,0.0239258,-0.219238,0.991211,9811423869,-0.875,0.3125,-1.5625,9811423869,-0.106506,-0.00732422,-0.0352173,0.993652,-0.212799,-0.022059,-0.0684975
9811445573,1,3,-6,-3,-1,2,0,-5,9811446328,0.0161133,-0.209961,0.991699,9811446328,1.5,1.25,-1.875,9811446328,-0.106201,-0.00708008,-0.0355835,0.993652,-0.212188,-0.02163,-0.069283
9811459840,3,3,5,-6,-4,1,-1,3,9811446328,0.0161133,-0.209961,0.991699,9811446328,1.5,1.25,-1.875,9811446328,-0.106201,-0.00708008,-0.0355835,0.993652,-0.212188,-0.02163,-0.069283
9811459840,-2,-1,-9,-3,-1,-2,0,-1,9811446328,0.0161133,-0.209961,0.991699,9811446328,1.5,1.25,-1.875,9811446328,-0.106201,-0.00708008,-0.0355835,0.993652,-0.212188,-0.02163,-0.069283
9811468037,-1,2,-9,-2,-6,0,-2,-2,9811446328,0.0161133,-0.209961,0.991699,9811446328,1.5,1.25,-1.875,9811446328,-0.106201,-0.00708008,-0.0355835,0.993652,-0.212188,-0.02163,-0.069283
9811468037,1,-2,4,2,-2,-3,3,-1,9811468815,0.0146484,-0.20166,0.993652,9811468815,0.375,0.375,-1.4375,9811468815,-0.105957,-0.00695801,-0.0358276,0.993652,-0.211697,-0.0214217,-0.0697986
9811474828,1,-3,-3,2,-4,2,1,-5,9811468815,0.0146484,-0.20166,0.993652,9811468815,0.375,0.375,-1.4375,9811468815,-0.105957,-0.00695801,-0.0358276,0.993652,-0.211697,-0.0214217,-0.0697986
9811474828,-7,-3,-2,4,0,-4,-2,-1,9811468815,0.0146484,-0.20166,0.993652,9811468815,0.375,0.375,-1.4375,9811468815,-0.105957,-0.00695801,-0.0358276,0.993652,-0.211697,-0.0214217,-0.0697986
9811483084,3,-3,-1,-2,0,0,-5,-2,9811468815,0.0146484,-0.20166,0.993652,9811468815,0.375,0.375,-1.4375,9811468815,-0.105957,-0.00695801,-0.0358276,0.993652,-0.211697,-0.0214217,-0.0697986
9811483084,0,-2,-5,-2,1,-3,2,6,9811483848,0.0146484,-0.203125,0.984863,9811483848,-0.9375,-0.875,-0.1875,9811483848,-0.105957,-0.00695801,-0.0358276,0.993652,-0.211697,-0.0214217,-0.0697986
9811497286,0,-2,-2,-4,-2,-4,2,-3,9811483848,0.0146484,-0.203125,0.984863,9811483848,-0.9375,-0.875,-0.1875,9811483848,-0.105957,-0.00695801,-0.0358276,0.993652,-0.211697,-0.0214217,-0.0697986
9811497286,6,0,-1,-1,0,2,1,1,9811483848,0.0146484,-0.203125,0.984863,9811483848,-0.9375,-0.875,-0.1875,9811483848,-0.105957,-0.00695801,-0.0358276,0.993652,-0.211697,-0.0214217,-0.0697986
9811505548,1,3,-2,-3,-4,0,-2,-3,9811483848,0.0146484,-0.203125,0.984863,9811483848,-0.9375,-0.875,-0.1875,9811483848,-0.105957,-0.00695801,-0.0358276,0.993652,-0.211697,-0.0214217,-0.0697986
9811505548,4,3,-2,1,-2,0,-1,-1,9811506308,0.0234375,-0.209473,0.987305,9811506308,0.6875,0.1875,0.6875,9811506308,-0.105896,-0.00695801,-0.0358276,0.993652,-0.211573,-0.0214173,-0.0697995
9811520561,-3,-5,6,0,0,0,-3,-2,9811506308,0.0234375,-0.209473,0.987305,9811506308,0.6875,0.1875,0.6875,9811506308,-0.105896,-0.00695801,-0.0358276,0.993652,-0.211573,-0.0214173,-0.0697995
9811520561,6,-2,-3,-5,-5,2,6,1,9811506308,0.0234375,-0.209473,0.987305,9811506308,0.6875,0.1875,0.6875,9811506308,-0.105896,-0.00695801,-0.0358276,0.993652,-0.211573,-0.0214173,-0.0697995
9811521315,-2,1,-8,-4,-3,1,-3,-4,9811506308,0.0234375,-0.209473,0.987305,9811506308,0.6875,0.1875,0.6875,9811506308,-0.105896,-0.00695801,-0.0358276,0.993652,-0.211573,-0.0214173,-0.0697995
9811521315,-3,-2,-8,-4,-1,-1,2,-5,9811527397,0.0229492,-0.213379,0.996094,9811527397,1.6875,1.5625,1,9811527397,-0.105591,-0.00671387,-0.0356445,0.993713,-0.210983,-0.0208723,-0.0694941
9811534856,-1,2,-1,-1,-3,-3,-1,3,9811527397,0.0229492,-0.213379,0.996094,9811527397,1.6875,1.5625,1,9811527397,-0.105591,-0.00671387,-0.0356445,0.993713,-0.210983,-0.0208723,-0.0694941
9811534856,2,-2,0,0,-1,-1,-2,-9,9811527397,0.0229492,-0.213379,0.996094,9811527397,1.6875,1.5625,1,9811527397,-0.105591,-0.00671387,-0.0356445,0.993713,-0.210983,-0.0208723,-0.0694941
9811543044,-5,-9,-3,-1,0,0,4,1,9811527397,0.0229492,-0.213379,0.996094,9811527397,1.6875,1.5625,1,9811527397,-0.105591,-0.00671387,-0.0356445,0.993713,-0.210983,-0.0208723,-0.0694941
9811543044,2,-3,4,-3,0,3,2,2,9811543809,0.0185547,-0.212891,0.989746,9811543809,1,0.625,1,9811543809,-0.105408,-0.0065918,-0.0354614,0.993774,-0.210634,-0.0205788,-0.0691614
9811557360,4,0,0,-1,0,-2,-2,0,9811543809,0.0185547,-0.212891,0.989746,9811543809,1,0.625,1,9811543809,-0.105408,-0.0065918,-0.0354614,0.993774,-0.210634,-0.0205788,-0.0691614
9811557360,-6,-3,-1,-2,1,-4,-4,0,9811543809,0.0185547,-0.212891,0.989746,9811543809,1,0.625,1,9811543809,-0.105408,-0.0065918,-0.0354614,0.993774,-0.210634,-0.0205788,-0.0691614
9811565531,-1,1,-13,0,-2,2,1,1,9811543809,0.0185547,-0.212891,0.989746,9811543809,1,0.625,1,9811543809,-0.105408,-0.0065918,-0.0354614,0.993774,-0.210634,-0.0205788,-0.0691614
9811565531,2,4,4,3,-1,1,1,0,9811566302,0.0229492,-0.215332,0.996582,9811566302,0.0625,-0.9375,1,9811566302,-0.105469,-0.00671387,-0.0352783,0.993774,-0.210752,-0.0207872,-0.0687702
9811579863,-3,-7,-6,-1,-1,0,0,-8,9811566302,0.0229492,-0.215332,0.996582,9811566302,0.0625,-0.9375,1,9811566302,-0.105469,-0.00671387,-0.0352783,0.993774,-0.210752,-0.0207872,-0.0687702
9811579863,-6,-1,-18,-3,0,-3,0,-5,9811566302,0.0229492,-0.215332,0.996582,9811566302,0.0625,-0.9375,1,9811566302,-0.105469,-0.00671387,-0.0352783,0.993774,-0.210752,-0.0207872,-0.0687702
9811588033,3,5,-7,0,-1,0,-4,1,9811566302,0.0229492,-0.215332,0.996582,9811566302,0.0625,-0.9375,1,9811566302,-0.105469,-0.00671387,-0.0352783,0.993774,-0.210752,-0.0207872,-0.0687702
9811588033,-2,-2,5,-3,2,-3,-1,0,9811588805,0.0258789,-0.214355,0.998047,9811588805,-0.875,-1.1875,0.25,9811588805,-0.105591,-0.00695801,-0.0352173,0.993713,-0.210973,-0.0212674,-0.0685917
9811594878,-7,-8,-8,-7,-1,-4,-3,-2,9811588805,0.0258789,-0.214355,0.998047,9811588805,-0.875,-1.1875,0.25,9811588805,-0.105591,-0.00695801,-0.0352173,0.993713,-0.210973,-0.0212674,-0.0685917
9811594878,2,6,4,0,-3,2,1,-2,9811588805,0.0258789,-0.214355,0.998047,9811588805,-0.875,-1.1875,0.25,9811588805,-0.105591,-0.00695801,-0.0352173,0.993713,-0.210973,-0.0212674,-0.0685917
9811603053,3,5,10,0,1,-6,3,1,9811588805,0.0258789,-0.214355,0.998047,9811588805,-0.875,-1.1875,0.25,9811588805,-0.105591,-0.00695801,-0.0352173,0.993713,-0.210973,-0.0212674,-0.0685917
9811603053,-4,1,-9,-2,-5,-3,-4,-3,9811603848,0.0249023,-0.22168,0.994629,9811603848,0.6875,-0.5625,0.3125,9811603848,-0.105652,-0.00695801,-0.0352173,0.993713,-0.211097,-0.0212717,-0.0685908
9811617369,3,3,-12,-3,0,0,2,0,9811603848,0.0249023,-0.22168,0.994629,9811603848,0.6875,-0.5625,0.3125,9811603848,-0.105652,-0.00695801,-0.0352173,0.993713,-0.211097,-0.0212717,-0.0685908
9811617369,2,8,1,1,-3,0,2,1,9811603848,0.0249023,-0.22168,0.994629,9811603848,0.6875,-0.5625,0.3125,9811603848,-0.105652,-0.00695801,-0.0352173,0.993713,-0.211097,-0.0212717,-0.0685908
9811625508,-1,-7,-5,-3,-3,-5,-2,-8,9811603848,0.0249023,-0.22168,0.994629,9811603848,0.6875,-0.5625,0.3125,9811603848,-0.105652,-0.00695801,-0.0352173,0.993713,-0.211097,-0.0212717,-0.0685908
9811625508,-4,-8,-6,-1,-2,0,-1,-2,9811626354,0.0273438,-0.222656,0.993652,9811626354,1.75,-0.1875,0.375,9811626354,-0.105469,-0.00708008,-0.0351562,0.993774,-0.210731,-0.0214894,-0.0684505
9811639844,-2,-2,-7,0,-3,-2,-7,-2,9811626354,0.0273438,-0.222656,0.993652,9811626354,1.75,-0.1875,0.375,9811626354,-0.105469,-0.00708008,-0.0351562,0.993774,-0.210731,-0.0214894,-0.0684505
9811639844,-3,-5,-2,-2,1,-1,1,8,9811626354,0.0273438,-0.222656,0.993652,9811626354,1.75,-0.1875,0.375,9811626354,-0.105469,-0.00708008,-0.0351562,0.993774,-0.210731,-0.0214894,-0.0684505
9811648028,-9,-7,-8,-5,2,-2,-2,1,9811626354,0.0273438,-0.222656,0.993652,9811626354,1.75,-0.1875,0.375,9811626354,-0.105469,-0.00708008,-0.0351562,0.993774,-0.210731,-0.0214894,-0.0684505
9811648028,3,5,2,0,0,0,0,1,9811648784,0.0219727,-0.221191,0.992676,9811648784,2.4375,0.3125,-0.3125,9811648784,-0.105103,-0.00701904,-0.0352173,0.993774,-0.20999,-0.0213552,-0.06859
9811663397,2,-1,2,-4,1,-2,0,-1,9811648784,0.0219727,-0.221191,0.992676,9811648784,2.4375,0.3125,-0.3125,9811648784,-0.105103,-0.00701904,-0.0352173,0.993774,-0.20999,-0.0213552,-0.06859
9811663397,-1,-6,4,-1,-4,4,-1,1,9811648784,0.0219727,-0.221191,0.992676,9811648784,2.4375,0.3125,-0.3125,9811648784,-0.105103,-0.00701904,-0.0352173,0.993774,-0.20999,-0.0213552,-0.06859
9811664166,2,1,-2,1,-7,2,-4,0,9811648784,0.0219727,-0.221191,0.992676,9811648784,2.4375,0.3125,-0.3125,9811648784,-0.105103,-0.00701904,-0.0352173,0.993774,-0.20999,-0.0213552,-0.06859
9811664166,5,2,-4,-2,-1,-1,-3,3,9811669896,0.0170898,-0.207031,0.976562,9811669896,2.9375,0.3125,-0.125,9811669896,-0.104614,-0.00695801,-0.0352173,0.993835,-0.209014,-0.0212003,-0.0686138
9811677369,-6,-3,-5,-6,-3,-3,5,0,9811669896,0.0170898,-0.207031,0.976562,9811669896,2.9375,0.3125,-0.125,9811669896,-0.104614,-0.00695801,-0.0352173,0.993835,-0.209014,-0.0212003,-0.0686138
9811677369,-4,-7,-3,4,-1,-2,-3,-6,9811669896,0.0170898,-0.207031,0.976562,9811669896,2.9375,0.3125,-0.125,9811669896,-0.104614,-0.00695801,-0.0352173,0.993835,-0.209014,-0.0212003,-0.0686138
9811685563,4,6,-6,2,0,0,1,-3,9811669896,0.0170898,-0.207031,0.976562,9811669896,2.9375,0.3125,-0.125,9811669896,-0.104614,-0.00695801,-0.0352173,0.993835,-0.209014,-0.0212003,-0.0686138
9811685563,0,5,2,3,-4,3,3,-2,9811686283,0.0141602,-0.202637,0.983398,9811686283,-1.0625,-0.9375,0.4375,9811686283,-0.104736,-0.00701904,-0.0350952,0.993835,-0.20926,-0.0213046,-0.0683562
9811699871,-6,-1,0,-3,1,-1,-6,-3,9811686283,0.0141602,-0.202637,0.983398,9811686283,-1.0625,-0.9375,0.4375,9811686283,-0.104736,-0.00701904,-0.0350952,0.993835,-0.20926,-0.0213046,-0.0683562
9811699871,3,-1,-2,2,-3,-5,0,-4,9811686283,0.0141602,-0.202637,0.983398,9811686283,-1.0625,-0.9375,0.4375,9811686283,-0.104736,-0.00701904,-0.0350952,0.993835,-0.20926,-0.0213046,-0.0683562
9811708087,2,0,4,-2,-3,-2,-6,2,9811686283,0.0141602,-0.202637,0.983398,9811686283,-1.0625,-0.9375,0.4375,9811686283,-0.104736,-0.00701904,-0.0350952,0.993835,-0.20926,-0.0213046,-0.0683562
9811708087,-5,-8,-11,-3,-4,-7,-5,-1,9811708851,0.0249023,-0.21875,0.987793,9811708851,-1.4375,-1,0.875,9811708851,-0.105042,-0.00720215,-0.0349731,0.993774,-0.209858,-0.0216636,-0.0680663
9811723751,-1,-1,-3,4,1,-3,-4,-3,9811708851,0.0249023,-0.21875,0.987793,9811708851,-1.4375,-1,0.875,9811708851,-0.105042,-0.00720215,-0.0349731,0.993774,-0.209858,-0.0216636,-0.0680663
9811723751,5,9,1,-2,-2,-3,2,0,9811708851,0.0249023,-0.21875,0.987793,9811708851,-1.4375,-1,0.875,9811708851,-0.105042,-0.00720215,-0.0349731,0.993774,-0.209858,-0.0216636,-0.0680663
9811724456,2,-5,-6,2,3,-3,-2,4,9811708851,0.0249023,-0.21875,0.987793,9811708851,-1.4375,-1,0.875,9811708851,-0.105042,-0.00720215,-0.0349731,0.993774,-0.209858,-0.0216636,-0.0680663
9811724456,-1,-3,-16,-4,2,-3,-1,-5,9811725346,0.03125,-0.219727,0.98877,9811725346,-0.75,0.3125,0.4375,9811725346,-0.105103,-0.00720215,-0.0349731,0.993774,-0.209982,-0.0216678,-0.0680654
9811737362,5,4,3,0,-2,0,-4,3,9811725346,0.03125,-0.219727,0.98877,9811725346,-0.75,0.3125,0.4375,9811725346,-0.105103,-0.00720215,-0.0349731,0.993774,-0.209982,-0.0216678,-0.0680654
9811737362,-3,0,6,-3,-4,1,-3,0,9811725346,0.03125,-0.219727,0.98877,9811725346,-0.75,0.3125,0.4375,9811725346,-0.105103,-0.00720215,-0.0349731,0.993774,-0.209982,-0.0216678,-0.0680654
9811745521,-9,-12,-6,-3,-4,-2,-5,-5,9811725346,0.03125,-0.219727,0.98877,9811725346,-0.75,0.3125,0.4375,9811725346,-0.105103,-0.00720215,-0.0349731,0.993774,-0.209982,-0.0216678,-0.0680654
9811745521,6,1,-1,-2,-3,-4,-4,3,9811746317,0.027832,-0.217285,0.998047,9811746317,0.8125,1.1875,0.125,9811746317,-0.10498,-0.00708008,-0.0349731,0.993835,-0.209754,-0.0214175,-0.0680968
9811759807,0,-5,-6,-3,-2,-1,3,-3,9811746317,0.027832,-0.217285,0.998047,9811746317,0.8125,1.1875,0.125,9811746317,-0.10498,-0.00708008,-0.0349731,0.993835,-0.209754,-0.0214175,-0.0680968
9811759807,-4,2,-3,3,-1,-1,-5,0,9811746317,0.027832,-0.217285,0.998047,9811746317,0.8125,1.1875,0.125,9811746317,-0.10498,-0.00708008,-0.0349731,0.993835,-0.209754,-0.0214175,-0.0680968
9811768037,3,-1,5,0,4,2,0,1,9811746317,0.027832,-0.217285,0.998047,9811746317,0.8125,1.1875,0.125,9811746317,-0.10498,-0.00708008,-0.0349731,0.993835,-0.209754,-0.0214175,-0.0680968
9811768037,-1,5,-1,-3,4,-2,-3,-2,9811768869,0.0292969,-0.216797,0.993652,9811768869,1.5,0.3125,0.625,9811768869,-0.104797,-0.00714111,-0.0348511,0.993835,-0.20938,-0.0215004,-0.0678434
9811783690,-2,-2,6,3,2,0,-3,-6,9811768869,0.0292969,-0.216797,0.993652,9811768869,1.5,0.3125,0.625,9811768869,-0.104797,-0.00714111,-0.0348511,0.993835,-0.20938,-0.0215004,-0.0678434
9811783690,-1,-2,1,3,-1,0,-2,1,9811768869,0.0292969,-0.216797,0.993652,9811768869,1.5,0.3125,0.625,9811768869,-0.104797,-0.00714111,-0.0348511,0.993835,-0.20938,-0.0215004,-0.0678434
9811784437,1,-1,-3,-3,0,-3,4,-5,9811768869,0.0292969,-0.216797,0.993652,9811768869,1.5,0.3125,0.625,9811768869,-0.104797,-0.00714111,-0.0348511,0.993835,-0.20938,-0.0215004,-0.0678434
9811784437,-2,0,8,-1,-3,-1,-3,-3,9811785273,0.0263672,-0.219238,0.998535,9811785273,1.25,0.125,0.125,9811785273,-0.104675,-0.00714111,-0.0348511,0.993835,-0.209132,-0.0214919,-0.0678452
9811797335,-8,-7,-7,-3,0,-2,-4,-2,9811785273,0.0263672,-0.219238,0.998535,9811785273,1.25,0.125,0.125,9811785273,-0.104675,-0.00714111,-0.0348511,0.993835,-0.209132,-0.0214919,-0.0678452
9811797335,-5,-1,-6,-4,-1,-4,-2,-1,9811785273,0.0263672,-0.219238,0.998535,9811785273,1.25,0.125,0.125,9811785273,-0.104675,-0.00714111,-0.0348511,0.993835,-0.209132,-0.0214919,-0.0678452
9811813050,1,7,6,-6,-4,-1,1,-1,9811785273,0.0263672,-0.219238,0.998535,9811785273,1.25,0.125,0.125,9811785273,-0.104675,-0.00714111,-0.0348511,0.993835,-0.209132,-0.0214919,-0.0678452
9811813050,0,-5,-4,-1,0,-1,2,-1,9811813861,0.0214844,-0.208496,0.994141,9811813861,1,-0.75,-0.1875,9811813861,-0.104431,-0.00726318,-0.0348511,0.993896,-0.208641,-0.0217185,-0.0678277
9811819821,1,-2,-1,-3,-1,-3,-1,2,9811813861,0.0214844,-0.208496,0.994141,9811813861,1,-0.75,-0.1875,9811813861,-0.104431,-0.00726318,-0.0348511,0.993896,-0.208641,-0.0217185,-0.0678277
9811819821,6,4,-6,-1,-4,1,-1,4,9811828029,0.0170898,-0.208008,0.978516,9811828029,-1.0625,-1.6875,-0.4375,9811828029,-0.104614,-0.00750732,-0.0348511,0.993835,-0.208985,-0.0222158,-0.0677703
9811828772,1,-2,-1,-2,1,-2,-5,-3,9811828029,0.0170898,-0.208008,0.978516,9811828029,-1.0625,-1.6875,-0.4375,9811828029,-0.104614,-0.00750732,-0.0348511,0.993835,-0.208985,-0.0222158,-0.0677703
9811828772,-5,-4,-8,-1,-1,-3,-3,1,9811828029,0.0170898,-0.208008,0.978516,9811828029,-1.0625,-1.6875,-0.4375,9811828029,-0.104614,-0.00750732,-0.0348511,0.993835,-0.208985,-0.0222158,-0.0677703
9811843698,2,4,-3,1,-2,2,2,4,9811828029,0.0170898,-0.208008,0.978516,9811828029,-1.0625,-1.6875,-0.4375,9811828029,-0.104614,-0.00750732,-0.0348511,0.993835,-0.208985,-0.0222158,-0.0677703
9811843698,0,-1,-9,-4,1,-2,-1,-2,9811844494,0.0170898,-0.208496,0.973145,9811844494,-1.5,-2.0625,0.0625,9811844494,-0.104919,-0.0078125,-0.03479,0.993835,-0.209587,-0.022831,-0.0675808
9811845302,-9,-1,-8,0,-1,-1,-3,-5,9811844494,0.0170898,-0.208496,0.973145,9811844494,-1.5,-2.0625,0.0625,9811844494,-0.104919,-0.0078125,-0.03479,0.993835,-0.209587,-0.022831,-0.0675808
9811845302,1,4,1,-3,-3,1,0,1,9811844494,0.0170898,-0.208496,0.973145,9811844494,-1.5,-2.0625,0.0625,9811844494,-0.104919,-0.0078125,-0.03479,0.993835,-0.209587,-0.022831,-0.0675808
9811857348,5,5,-5,-2,-3,5,0,0,9811844494,0.0170898,-0.208496,0.973145,9811844494,-1.5,-2.0625,0.0625,9811844494,-0.104919,-0.0078125,-0.03479,0.993835,-0.209587,-0.022831,-0.0675808
9811857348,-2,0,2,-2,-1,2,-2,-2,9811865579,0.0292969,-0.214355,0.970215,9811865579,-1.125,-0.75,0.5625,9811865579,-0.105164,-0.00799561,-0.034668,0.993774,-0.210061,-0.0231853,-0.0672914
9811866330,3,2,-4,0,-4,1,-1,2,9811865579,0.0292969,-0.214355,0.970215,9811865579,-1.125,-0.75,0.5625,9811865579,-0.105164,-0.00799561,-0.034668,0.993774,-0.210061,-0.0231853,-0.0672914
9811866330,4,3,-1,-2,2,-1,-1,0,9811865579,0.0292969,-0.214355,0.970215,9811865579,-1.125,-0.75,0.5625,9811865579,-0.105164,-0.00799561,-0.034668,0.993774,-0.210061,-0.0231853,-0.0672914
9811879829,-3,-1,-4,1,0,-3,8,4,9811865579,0.0292969,-0.214355,0.970215,9811865579,-1.125,-0.75,0.5625,9811865579,-0.105164,-0.00799561,-0.034668,0.993774,-0.210061,-0.0231853,-0.0672914
9811879829,-2,-1,-8,-4,-6,0,-5,-7,9811888131,0.0307617,-0.219238,0.989258,9811888131,1.5625,1.625,0.9375,9811888131,-0.10498,-0.00775146,-0.0345459,0.993835,-0.209719,-0.0226626,-0.0671059
9811888853,0,-1,1,-2,-2,-2,-3,1,9811888131,0.0307617,-0.219238,0.989258,9811888131,1.5625,1.625,0.9375,9811888131,-0.10498,-0.00775146,-0.0345459,0.993835,-0.209719,-0.0226626,-0.0671059
9811888853,-4,-3,8,3,-1,2,3,-4,9811888131,0.0307617,-0.219238,0.989258,9811888131,1.5625,1.625,0.9375,9811888131,-0.10498,-0.00775146,-0.0345459,0.993835,-0.209719,-0.0226626,-0.0671059
9811903705,-7,-10,-13,0,-1,1,-5,-6,9811888131,0.0307617,-0.219238,0.989258,9811888131,1.5625,1.625,0.9375,9811888131,-0.10498,-0.00775146,-0.0345459,0.993835,-0.209719,-0.0226626,-0.0671059
9811903705,4,-3,-3,0,-2,-3,0,1,9811904482,0.0322266,-0.217773,0.990234,9811904482,2.6875,2.8125,1.1875,9811904482,-0.104614,-0.00738525,-0.0344238,0.993835,-0.208999,-0.0218836,-0.0669441
9811905289,-1,-4,5,-2,-1,-1,2,2,9811904482,0.0322266,-0.217773,0.990234,9811904482,2.6875,2.8125,1.1875,9811904482,-0.104614,-0.00738525,-0.0344238,0.993835,-0.208999,-0.0218836,-0.0669441
9811905289,4,-4,2,0,3,-6,4,-6,9811904482,0.0322266,-0.217773,0.990234,9811904482,2.6875,2.8125,1.1875,9811904482,-0.104614,-0.00738525,-0.0344238,0.993835,-0.208999,-0.0218836,-0.0669441
9811917382,1,0,4,1,3,1,1,-4,9811904482,0.0322266,-0.217773,0.990234,9811904482,2.6875,2.8125,1.1875,9811904482,-0.104614,-0.00738525,-0.0344238,0.993835,-0.208999,-0.0218836,-0.0669441
9811917382,3,4,5,0,2,6,3,0,9811925588,0.0239258,-0.222168,1.00635,9811925588,1.8125,2.25,0.3125,9811925588,-0.10437,-0.00701904,-0.0344238,0.993896,-0.208538,-0.0211396,-0.0670274
9811926347,0,-3,-12,-2,-2,-2,-4,-5,9811925588,0.0239258,-0.222168,1.00635,9811925588,1.8125,2.25,0.3125,9811925588,-0.10437,-0.00701904,-0.0344238,0.993896,-0.208538,-0.0211396,-0.0670274
9811926347,-2,0,-7,0,-5,2,1,2,9811925588,0.0239258,-0.222168,1.00635,9811925588,1.8125,2.25,0.3125,9811925588,-0.10437,-0.00701904,-0.0344238,0.993896,-0.208538,-0.0211396,-0.0670274
9811939891,0,-2,3,-9,-5,-2,-3,-2,9811925588,0.0239258,-0.222168,1.00635,9811925588,1.8125,2.25,0.3125,9811925588,-0.10437,-0.00701904,-0.0344238,0.993896,-0.208538,-0.0211396,-0.0670274
9811939891,1,-7,-6,-6,-3,-3,-3,-5,9811948063,0.019043,-0.211426,1.00439,9811948063,1.125,0.625,-0.25,9811948063,-0.104187,-0.00689697,-0.0344238,0.993896,-0.208173,-0.0208843,-0.0670552
9811948824,-8,-7,-11,-3,2,-2,1,-1,9811948063,0.019043,-0.211426,1.00439,9811948063,1.125,0.625,-0.25,9811948063,-0.104187,-0.00689697,-0.0344238,0.993896,-0.208173,-0.0208843,-0.0670552
9811948824,-2,-1,-9,-1,-1,-2,-5,-2,9811948063,0.019043,-0.211426,1.00439,9811948063,1.125,0.625,-0.25,9811948063,-0.104187,-0.00689697,-0.0344238,0.993896,-0.208173,-0.0208843,-0.0670552
9811963653,0,2,7,-3,1,-4,3,-1,9811948063,0.019043,-0.211426,1.00439,9811948063,1.125,0.625,-0.25,9811948063,-0.104187,-0.00689697,-0.0344238,0.993896,-0.208173,-0.0208843,-0.0670552
9811963653,-3,-3,0,-3,1,-2,-4,-4,9811964440,0.015625,-0.206543,1.00439,9811964440,-1.0625,-1.1875,-0.875,9811964440,-0.104248,-0.00708008,-0.0345459,0.993896,-0.208284,-0.021278,-0.0672598
9811965235,2,-2,-7,-3,-1,0,-1,-5,9811964440,0.015625,-0.206543,1.00439,9811964440,-1.0625,-1.1875,-0.875,9811964440,-0.104248,-0.00708008,-0.0345459,0.993896,-0.208284,-0.021278,-0.0672598
9811965235,3,4,0,-2,-5,-1,0,2,9811964440,0.015625,-0.206543,1.00439,9811964440,-1.0625,-1.1875,-0.875,9811964440,-0.104248,-0.00708008,-0.0345459,0.993896,-0.208284,-0.021278,-0.0672598
9811977378,-4,0,-7,3,-1,2,-2,1,9811964440,0.015625,-0.206543,1.00439,9811964440,-1.0625,-1.1875,-0.875,9811964440,-0.104248,-0.00708008,-0.0345459,0.993896,-0.208284,-0.021278,-0.0672598
9811977378,0,0,-2,4,-2,-3,-1,-5,9811985589,0.0131836,-0.201172,0.996094,9811985589,-2.875,-2.625,-0.9375,9811985589,-0.104675,-0.00738525,-0.034668,0.993835,-0.209119,-0.021939,-0.0674297
9811986368,0,-2,0,-2,0,0,-5,3,9811985589,0.0131836,-0.201172,0.996094,9811985589,-2.875,-2.625,-0.9375,9811985589,-0.104675,-0.00738525,-0.034668,0.993835,-0.209119,-0.021939,-0.0674297
9811986368,-1,-2,-4,-1,-8,-2,-4,4,9811985589,0.0131836,-0.201172,0.996094,9811985589,-2.875,-2.625,-0.9375,9811985589,-0.104675,-0.00738525,-0.034668,0.993835,-0.209119,-0.021939,-0.0674297
9811999913,-2,-4,1,2,-2,-5,-6,-6,9811985589,0.0131836,-0.201172,0.996094,9811985589,-2.875,-2.625,-0.9375,9811985589,-0.104675,-0.00738525,-0.034668,0.993835,-0.209119,-0.021939,-0.0674297
9811999913,-1,1,-6,-2,0,2,4,6,9812008100,0.012207,-0.194336,0.97998,9812008100,-2.3125,-2.3125,-0.0625,9812008100,-0.104919,-0.00769043,-0.0346069,0.993835,-0.209597,-0.0225498,-0.0672412
9812008859,0,7,4,-2,1,2,4,2,9812008100,0.012207,-0.194336,0.97998,9812008100,-2.3125,-2.3125,-0.0625,9812008100,-0.104919,-0.00769043,-0.0346069,0.993835,-0.209597,-0.0225498,-0.0672412
9812008859,-2,-3,-8,0,0,1,-4,-4,9812008100,0.012207,-0.194336,0.97998,9812008100,-2.3125,-2.3125,-0.0625,9812008100,-0.104919,-0.00769043,-0.0346069,0.993835,-0.209597,-0.0225498,-0.0672412
9812023750,0,-6,-6,-4,-2,-1,-6,2,9812008100,0.012207,-0.194336,0.97998,9812008100,-2.3125,-2.3125,-0.0625,9812008100,-0.104919,-0.00769043,-0.0346069,0.993835,-0.209597,-0.0225498,-0.0672412
9812023750,3,3,1,-4,-5,-1,1,5,9812024489,0.0219727,-0.214844,0.989258,9812024489,0.3125,-0.1875,1.875,9812024489,-0.104858,-0.00762939,-0.0343018,0.993835,-0.209482,-0.0223602,-0.0666466
9812025300,-1,-4,0,1,-2,-1,2,1,9812024489,0.0219727,-0.214844,0.989258,9812024489,0.3125,-0.1875,1.875,9812024489,-0.104858,-0.00762939,-0.0343018,0.993835,-0.209482,-0.0223602,-0.0666466
9812025300,-8,-2,-7,-1,2,4,3,0,9812024489,0.0219727,-0.214844,0.989258,9812024489,0.3125,-0.1875,1.875,9812024489,-0.104858,-0.00762939,-0.0343018,0.993835,-0.209482,-0.0223602,-0.0666466
9812037437,-1,2,-4,-4,-4,0,-1,-1,9812024489,0.0219727,-0.214844,0.989258,9812024489,0.3125,-0.1875,1.875,9812024489,-0.104858,-0.00762939,-0.0343018,0.993835,-0.209482,-0.0223602,-0.0666466
9812037437,-3,-1,-5,1,0,-2,-1,-5,9812045576,0.0297852,-0.222656,0.998535,9812045576,3.8125,2,3,9812045576,-0.10437,-0.00738525,-0.0338135,0.993896,-0.208524,-0.0217403,-0.0657355
9812046318,-3,-8,-3,3,0,0,1,-2,9812045576,0.0297852,-0.222656,0.998535,9812045576,3.8125,2,3,9812045576,-0.10437,-0.00738525,-0.0338135,0.993896,-0.208524,-0.0217403,-0.0657355
9812046318,2,2,0,-3,1,-3,1,-5,9812045576,0.0297852,-0.222656,0.998535,9812045576,3.8125,2,3,9812045576,-0.10437,-0.00738525,-0.0338135,0.993896,-0.208524,-0.0217403,-0.0657355
9812059890,2,-2,-10,-2,4,1,-1,0,9812045576,0.0297852,-0.222656,0.998535,9812045576,3.8125,2,3,9812045576,-0.10437,-0.00738525,-0.0338135,0.993896,-0.208524,-0.0217403,-0.0657355
9812059890,-6,-7,-9,-7,-1,-1,-2,-1,9812068523,0.0288086,-0.224609,0.998047,9812068523,4.625,2.6875,2.1875,9812068523,-0.103699,-0.00695801,-0.0334473,0.994019,-0.207216,-0.0207711,-0.0651114
9812074836,-3,3,1,-1,-3,-3,-5,-4,9812068523,0.0288086,-0.224609,0.998047,9812068523,4.625,2.6875,2.1875,9812068523,-0.103699,-0.00695801,-0.0334473,0.994019,-0.207216,-0.0207711,-0.0651114
9812074836,3,-1,3,-7,-1,-1,-1,1,9812068523,0.0288086,-0.224609,0.998047,9812068523,4.625,2.6875,2.1875,9812068523,-0.103699,-0.00695801,-0.0334473,0.994019,-0.207216,-0.0207711,-0.0651114
9812083441,-5,3,5,-1,-3,-3,-3,2,9812068523,0.0288086,-0.224609,0.998047,9812068523,4.625,2.6875,2.1875,9812068523,-0.103699,-0.00695801,-0.0334473,0.994019,-0.207216,-0.0207711,-0.0651114
9812083441,-2,1,3,-1,1,-2,1,-4,9812084214,0.0234375,-0.219727,0.987305,9812084214,2.6875,-0.0625,1.3125,9812084214,-0.103394,-0.00701904,-0.0332642,0.994019,-0.206595,-0.0208342,-0.0647382
9812089821,1,1,-7,3,-3,-1,1,-2,9812084214,0.0234375,-0.219727,0.987305,9812084214,2.6875,-0.0625,1.3125,9812084214,-0.103394,-0.00701904,-0.0332642,0.994019,-0.206595,-0.0208342,-0.0647382
9812089821,-2,-1,4,1,1,-1,-1,-4,9812084214,0.0234375,-0.219727,0.987305,9812084214,2.6875,-0.0625,1.3125,9812084214,-0.103394,-0.00701904,-0.0332642,0.994019,-0.206595,-0.0208342,-0.0647382
9812097305,-5,-5,-11,-1,-1,-3,1,-4,9812084214,0.0234375,-0.219727,0.987305,9812084214,2.6875,-0.0625,1.3125,9812084214,-0.103394,-0.00701904,-0.0332642,0.994019,-0.206595,-0.0208342,-0.0647382
9812097305,1,-5,-2,1,-4,2,0,-1,9812105559,0.0249023,-0.225098,0.973633,9812105559,-1.1875,-2.0625,0.25,9812105559,-0.103821,-0.00738525,-0.0331421,0.994019,-0.207443,-0.0215655,-0.0644137
9812106318,0,0,-5,-3,-2,-2,-6,-2,9812105559,0.0249023,-0.225098,0.973633,9812105559,-1.1875,-2.0625,0.25,9812105559,-0.103821,-0.00738525,-0.0331421,0.994019,-0.207443,-0.0215655,-0.0644137
9812106318,-3,-4,-7,-1,-2,-3,1,-3,9812105559,0.0249023,-0.225098,0.973633,9812105559,-1.1875,-2.0625,0.25,9812105559,-0.103821,-0.00738525,-0.0331421,0.994019,-0.207443,-0.0215655,-0.0644137
9812119870,-2,2,-3,4,-2,-3,0,-2,9812105559,0.0249023,-0.225098,0.973633,9812105559,-1.1875,-2.0625,0.25,9812105559,-0.103821,-0.00738525,-0.0331421,0.994019,-0.207443,-0.0215655,-0.0644137
9812119870,-4,4,3,-3,-1,0,0,2,9812128062,0.0205078,-0.216309,0.96875,9812128062,-2.625,-2.25,-0.875,9812128062,-0.104431,-0.00775146,-0.0332642,0.993896,-0.208634,-0.0223578,-0.0645643
9812128823,1,0,-3,0,2,1,1,2,9812128062,0.0205078,-0.216309,0.96875,9812128062,-2.625,-2.25,-0.875,9812128062,-0.104431,-0.00775146,-0.0332642,0.993896,-0.208634,-0.0223578,-0.0645643
9812128823,0,2,-5,0,-2,4,-3,-3,9812128062,0.0205078,-0.216309,0.96875,9812128062,-2.625,-2.25,-0.875,9812128062,-0.104431,-0.00775146,-0.0332642,0.993896,-0.208634,-0.0223578,-0.0645643
9812143683,1,0,2,-2,-1,0,3,1,9812128062,0.0205078,-0.216309,0.96875,9812128062,-2.625,-2.25,-0.875,9812128062,-0.104431,-0.00775146,-0.0332642,0.993896,-0.208634,-0.0223578,-0.0645643
9812143683,-1,-3,-9,-7,2,-5,0,-2,9812144464,0.0288086,-0.217773,0.971191,9812144464,-2,-0.375,-1.0625,9812144464,-0.104919,-0.00787354,-0.0334473,0.993835,-0.209604,-0.0226705,-0.0648922
9812145270,-3,-10,-16,1,-2,-1,2,-5,9812144464,0.0288086,-0.217773,0.971191,9812144464,-2,-0.375,-1.0625,9812144464,-0.104919,-0.00787354,-0.0334473,0.993835,-0.209604,-0.0226705,-0.0648922
9812145270,-1,0,9,1,-5,-3,-3,3,9812144464,0.0288086,-0.217773,0.971191,9812144464,-2,-0.375,-1.0625,9812144464,-0.104919,-0.00787354,-0.0334473,0.993835,-0.209604,-0.0226705,-0.0648922
9812157389,0,1,-4,1,-4,-4,2,1,9812144464,0.0288086,-0.217773,0.971191,9812144464,-2,-0.375,-1.0625,9812144464,-0.104919,-0.00787354,-0.0334473,0.993835,-0.209604,-0.0226705,-0.0648922
9812157389,-4,-9,-8,-1,-4,-1,-4,1,9812165563,0.0307617,-0.217773,0.989258,9812165563,-0.8125,1.125,-0.4375,9812165563,-0.105103,-0.0078125,-0.0335693,0.993835,-0.209978,-0.022587,-0.0651452
9812166296,-2,-1,4,-3,-2,-3,0,1,9812165563,0.0307617,-0.217773,0.989258,9812165563,-0.8125,1.125,-0.4375,9812165563,-0.105103,-0.0078125,-0.0335693,0.993835,-0.209978,-0.022587,-0.0651452
9812166296,3,3,-3,-2,-1,0,1,1,9812165563,0.0307617,-0.217773,0.989258,9812165563,-0.8125,1.125,-0.4375,9812165563,-0.105103,-0.0078125,-0.0335693,0.993835,-0.209978,-0.022587,-0.0651452
9812179794,1,0,-3,-4,2,-1,-4,-4,9812165563,0.0307617,-0.217773,0.989258,9812165563,-0.8125,1.125,-0.4375,9812165563,-0.105103,-0.0078125,-0.0335693,0.993835,-0.209978,-0.022587,-0.0651452
9812179794,-1,-2,7,-1,4,-5,-4,-3,9812188058,0.0332031,-0.217285,1.00195,9812188058,1,2,-0.0625,9812188058,-0.10498,-0.00756836,-0.0336304,0.993835,-0.209743,-0.0221063,-0.0653194
9812188844,2,10,4,-2,-1,-1,-1,1,9812188058,0.0332031,-0.217285,1.00195,9812188058,1,2,-0.0625,9812188058,-0.10498,-0.00756836,-0.0336304,0.993835,-0.209743,-0.0221063,-0.0653194
9812188844,-2,-8,-2,-3,-2,-4,1,-2,9812188058,0.0332031,-0.217285,1.00195,9812188058,1,2,-0.0625,9812188058,-0.10498,-0.00756836,-0.0336304,0.993835,-0.209743,-0.0221063,-0.0653194
9812203722,-5,-6,0,-3,-2,2,-1,1,9812188058,0.0332031,-0.217285,1.00195,9812188058,1,2,-0.0625,9812188058,-0.10498,-0.00756836,-0.0336304,0.993835,-0.209743,-0.0221063,-0.0653194
9812203722,1,-3,-4,1,2,-2,0,-1,9812204560,0.0273438,-0.217285,1.00586,9812204560,2.6875,1.8125,-0.6875,9812204560,-0.104553,-0.00732422,-0.0337524,0.993896,-0.2089,-0.0216186,-0.0656237
9812205284,-5,-4,-4,-3,0,-1,-4,-1,9812204560,0.0273438,-0.217285,1.00586,9812204560,2.6875,1.8125,-0.6875,9812204560,-0.104553,-0.00732422,-0.0337524,0.993896,-0.2089,-0.0216186,-0.0656237
9812205284,-11,-11,2,-6,-2,-3,-4,-3,9812204560,0.0273438,-0.217285,1.00586,9812204560,2.6875,1.8125,-0.6875,9812204560,-0.104553,-0.00732422,-0.0337524,0.993896,-0.2089,-0.0216186,-0.0656237
9812217315,5,1,-7,-1,-4,6,2,-3,9812204560,0.0273438,-0.217285,1.00586,9812204560,2.6875,1.8125,-0.6875,9812204560,-0.104553,-0.00732422,-0.0337524,0.993896,-0.2089,-0.0216186,-0.0656237
9812217315,8,3,-8,-2,-4,2,-2,3,9812225554,0.0151367,-0.20166,0.995605,9812225554,0.5,0.125,-1.375,9812225554,-0.104309,-0.00726318,-0.0339966,0.993896,-0.208405,-0.0215317,-0.0661264
9812226324,-1,-8,1,-2,0,0,-2,-5,9812225554,0.0151367,-0.20166,0.995605,9812225554,0.5,0.125,-1.375,9812225554,-0.104309,-0.00726318,-0.0339966,0.993896,-0.208405,-0.0215317,-0.0661264
9812226324,3,4,-9,3,3,1,-1,-2,9812225554,0.0151367,-0.20166,0.995605,9812225554,0.5,0.125,-1.375,9812225554,-0.104309,-0.00726318,-0.0339966,0.993896,-0.208405,-0.0215317,-0.0661264
9812239798,5,6,-2,-2,-4,0,2,1,9812225554,0.0151367,-0.20166,0.995605,9812225554,0.5,0.125,-1.375,9812225554,-0.104309,-0.00726318,-0.0339966,0.993896,-0.208405,-0.0215317,-0.0661264
9812239798,-5,1,3,-4,-3,-1,-5,-5,9812248025,0.0112305,-0.206543,0.982422,9812248025,-2.6875,-1.6875,-1.125,9812248025,-0.104736,-0.00744629,-0.0341187,0.993835,-0.209247,-0.0219495,-0.0663214
9812248843,-4,-3,-5,0,0,1,-3,-2,9812248025,0.0112305,-0.206543,0.982422,9812248025,-2.6875,-1.6875,-1.125,9812248025,-0.104736,-0.00744629,-0.0341187,0.993835,-0.209247,-0.0219495,-0.0663214
9812248843,-1,1,0,-5,-1,0,-4,5,9812248025,0.0112305,-0.206543,0.982422,9812248025,-2.6875,-1.6875,-1.125,9812248025,-0.104736,-0.00744629,-0.0341187,0.993835,-0.209247,-0.0219495,-0.0663214
9812263682,1,-3,3,-6,-3,-5,-7,-5,9812248025,0.0112305,-0.206543,0.982422,9812248025,-2.6875,-1.6875,-1.125,9812248025,-0.104736,-0.00744629,-0.0341187,0.993835,-0.209247,-0.0219495,-0.0663214
9812263682,-4,-7,-5,1,-1,0,-3,-3,9812264459,0.0258789,-0.219238,0.981934,9812264459,-2,-1.5,-0.5,9812264459,-0.105225,-0.00775146,-0.0341797,0.993835,-0.21022,-0.0226024,-0.0663723
9812265262,1,8,0,-4,-4,-1,4,-1,9812264459,0.0258789,-0.219238,0.981934,9812264459,-2,-1.5,-0.5,9812264459,-0.105225,-0.00775146,-0.0341797,0.993835,-0.21022,-0.0226024,-0.0663723
9812265262,2,0,-3,4,4,-2,3,-1,9812264459,0.0258789,-0.219238,0.981934,9812264459,-2,-1.5,-0.5,9812264459,-0.105225,-0.00775146,-0.0341797,0.993835,-0.21022,-0.0226024,-0.0663723
9812277553,-6,-3,-13,-2,-1,-1,-4,-2,9812264459,0.0258789,-0.219238,0.981934,9812264459,-2,-1.5,-0.5,9812264459,-0.105225,-0.00775146,-0.0341797,0.993835,-0.21022,-0.0226024,-0.0663723
9812277553,-3,1,-5,0,-2,-2,-1,-1,9812285658,0.0288086,-0.21875,0.977539,9812285658,-1.625,-0.5,-1,9812285658,-0.105591,-0.00787354,-0.0343628,0.993774,-0.210942,-0.0229078,-0.0667019
9812286392,7,4,0,1,-5,-1,0,3,9812285658,0.0288086,-0.21875,0.977539,9812285658,-1.625,-0.5,-1,9812285658,-0.105591,-0.00787354,-0.0343628,0.993774,-0.210942,-0.0229078,-0.0667019
9812286392,-4,-8,0,-3,-6,-2,-4,-2,9812285658,0.0288086,-0.21875,0.977539,9812285658,-1.625,-0.5,-1,9812285658,-0.105591,-0.00787354,-0.0343628,0.993774,-0.210942,-0.0229078,-0.0667019
9812299861,-6,-9,-3,0,0,-2,2,1,9812285658,0.0288086,-0.21875,0.977539,9812285658,-1.625,-0.5,-1,9812285658,-0.105591,-0.00787354,-0.0343628,0.993774,-0.210942,-0.0229078,-0.0667019
9812299861,-1,4,-5,-2,4,2,1,0,9812308057,0.0341797,-0.214355,0.977051,9812308057,1.75,1.1875,-0.1875,9812308057,-0.105347,-0.0078125,-0.0344238,0.993774,-0.210448,-0.0227826,-0.0668401
9812308792,0,0,10,-4,3,-3,-1,-3,9812308057,0.0341797,-0.214355,0.977051,9812308057,1.75,1.1875,-0.1875,9812308057,-0.105347,-0.0078125,-0.0344238,0.993774,-0.210448,-0.0227826,-0.0668401
9812308792,-7,-6,-5,-5,0,-10,-2,-6,9812308057,0.0341797,-0.214355,0.977051,9812308057,1.75,1.1875,-0.1875,9812308057,-0.105347,-0.0078125,-0.0344238,0.993774,-0.210448,-0.0227826,-0.0668401
9812323740,-1,6,-2,1,-5,0,-1,-1,9812308057,0.0341797,-0.214355,0.977051,9812308057,1.75,1.1875,-0.1875,9812308057,-0.105347,-0.0078125,-0.0344238,0.993774,-0.210448,-0.0227826,-0.0668401
9812323740,-1,2,7,-2,-3,-2,2,0,9812324585,0.0322266,-0.220703,0.977051,9812324585,1.5625,1.9375,-0.375,9812324585,-0.105225,-0.00762939,-0.0345459,0.993774,-0.21021,-0.0224358,-0.0671234
9812325246,-5,0,-1,-2,-1,-5,1,-4,9812324585,0.0322266,-0.220703,0.977051,9812324585,1.5625,1.9375,-0.375,9812324585,-0.105225,-0.00762939,-0.0345459,0.993774,-0.21021,-0.0224358,-0.0671234
9812325246,2,0,-1,1,-3,0,0,0,9812324585,0.0322266,-0.220703,0.977051,9812324585,1.5625,1.9375,-0.375,9812324585,-0.105225,-0.00762939,-0.0345459,0.993774,-0.21021,-0.0224358,-0.0671234
9812337421,4,3,6,-3,-5,0,-1,2,9812324585,0.0322266,-0.220703,0.977051,9812324585,1.5625,1.9375,-0.375,9812324585,-0.105225,-0.00762939,-0.0345459,0.993774,-0.21021,-0.0224358,-0.0671234
9812337421,-5,-4,3,-2,-1,-1,-3,-2,9812345540,0.0209961,-0.207031,0.974609,9812345540,1.0625,2.875,-0.6875,9812345540,-0.10498,-0.00714111,-0.034668,0.993835,-0.209754,-0.0214748,-0.0674759
9812346332,-2,2,-6,2,3,2,1,4,9812345540,0.0209961,-0.207031,0.974609,9812345540,1.0625,2.875,-0.6875,9812345540,-0.10498,-0.00714111,-0.034668,0.993835,-0.209754,-0.0214748,-0.0674759
9812346332,0,1,1,-5,0,0,0,-3,9812345540,0.0209961,-0.207031,0.974609,9812345540,1.0625,2.875,-0.6875,9812345540,-0.10498,-0.00714111,-0.034668,0.993835,-0.209754,-0.0214748,-0.0674759
9812368733,1,-3,-10,-7,0,-6,-1,-6,9812345540,0.0209961,-0.207031,0.974609,9812345540,1.0625,2.875,-0.6875,9812345540,-0.10498,-0.00714111,-0.034668,0.993835,-0.209754,-0.0214748,-0.0674759
9812368733,-7,-2,-7,-2,-4,-2,-8,-4,9812369491,0.0249023,-0.20752,0.991699,9812369491,0.125,2.8125,-0.375,9812369491,-0.104919,-0.00671387,-0.03479,0.993835,-0.209655,-0.0206467,-0.0678087
9812370264,2,-3,-5,-3,-5,1,-4,-2,9812369491,0.0249023,-0.20752,0.991699,9812369491,0.125,2.8125,-0.375,9812369491,-0.104919,-0.00671387,-0.03479,0.993835,-0.209655,-0.0206467,-0.0678087
9812370264,4,6,-6,-2,-3,0,-6,0,9812369491,0.0249023,-0.20752,0.991699,9812369491,0.125,2.8125,-0.375,9812369491,-0.104919,-0.00671387,-0.03479,0.993835,-0.209655,-0.0206467,-0.0678087
9812383753,0,0,3,2,0,0,-1,-2,9812369491,0.0249023,-0.20752,0.991699,9812369491,0.125,2.8125,-0.375,9812369491,-0.104919,-0.00671387,-0.03479,0.993835,-0.209655,-0.0206467,-0.0678087
9812383753,2,1,-3,0,2,-4,-1,-1,9812384468,0.0175781,-0.214844,1.00049,9812384468,-2.375,0.75,-0.8125,9812384468,-0.105286,-0.00653076,-0.0349731,0.993774,-0.210396,-0.020346,-0.0682026
9812385303,5,-4,1,-5,1,-3,1,2,9812384468,0.0175781,-0.214844,1.00049,9812384468,-2.375,0.75,-0.8125,9812384468,-0.105286,-0.00653076,-0.0349731,0.993774,-0.210396,-0.020346,-0.0682026
9812385303,-1,-2,-11,3,-2,-3,3,-1,9812384468,0.0175781,-0.214844,1.00049,9812384468,-2.375,0.75,-0.8125,9812384468,-0.105286,-0.00653076,-0.0349731,0.993774,-0.210396,-0.020346,-0.0682026
9812397395,1,2,-11,3,-2,-1,3,1,9812384468,0.0175781,-0.214844,1.00049,9812384468,-2.375,0.75,-0.8125,9812384468,-0.105286,-0.00653076,-0.0349731,0.993774,-0.210396,-0.020346,-0.0682026
9812397395,-1,-6,-3,-7,-2,-6,-6,2,9812405820,0.0141602,-0.216309,1.00488,9812405820,-2.6875,0.1875,-1.1875,9812405820,-0.105774,-0.00640869,-0.0351562,0.993713,-0.211381,-0.0201754,-0.0685824
9812406385,0,-2,-4,1,-1,1,0,-3,9812405820,0.0141602,-0.216309,1.00488,9812405820,-2.6875,0.1875,-1.1875,9812405820,-0.105774,-0.00640869,-0.0351562,0.993713,-0.211381,-0.0201754,-0.0685824
9812406385,-5,-4,-2,-1,-1,-4,0,-3,9812405820,0.0141602,-0.216309,1.00488,9812405820,-2.6875,0.1875,-1.1875,9812405820,-0.105774,-0.00640869,-0.0351562,0.993713,-0.211381,-0.0201754,-0.0685824
9812419953,0,2,5,3,-2,-3,-1,3,9812405820,0.0141602,-0.216309,1.00488,9812405820,-2.6875,0.1875,-1.1875,9812405820,-0.105774,-0.00640869,-0.0351562,0.993713,-0.211381,-0.0201754,-0.0685824
9812419953,3,0,4,-4,0,1,3,3,9812428234,0.0180664,-0.212891,0.999023,9812428234,0.1875,0.6875,-0.8125,9812428234,-0.105774,-0.00640869,-0.0351562,0.993713,-0.211381,-0.0201754,-0.0685824
9812428857,-5,-3,-5,-6,-3,-3,-5,0,9812428234,0.0180664,-0.212891,0.999023,9812428234,0.1875,0.6875,-0.8125,9812428234,-0.105774,-0.00640869,-0.0351562,0.993713,-0.211381,-0.0201754,-0.0685824
9812428857,-1,5,1,-1,0,0,0,2,9812428234,0.0180664,-0.212891,0.999023,9812428234,0.1875,0.6875,-0.8125,9812428234,-0.105774,-0.00640869,-0.0351562,0.993713,-0.211381,-0.0201754,-0.0685824
9812443733,1,7,-5,-6,-1,0,0,-1,9812428234,0.0180664,-0.212891,0.999023,9812428234,0.1875,0.6875,-0.8125,9812428234,-0.105774,-0.00640869,-0.0351562,0.993713,-0.211381,-0.0201754,-0.0685824
9812443733,0,0,1,2,1,-1,-2,-4,9812444483,0.0166016,-0.206543,0.993652,9812444483,1,1.5625,0.0625,9812444483,-0.10553,-0.00610352,-0.0351562,0.993774,-0.210917,-0.0195523,-0.0686536
9812445318,-1,-4,2,3,2,0,-5,-2,9812444483,0.0166016,-0.206543,0.993652,9812444483,1,1.5625,0.0625,9812444483,-0.10553,-0.00610352,-0.0351562,0.993774,-0.210917,-0.0195523,-0.0686536
9812445318,0,5,-9,-4,-4,-4,-3,-3,9812444483,0.0166016,-0.206543,0.993652,9812444483,1,1.5625,0.0625,9812444483,-0.10553,-0.00610352,-0.0351562,0.993774,-0.210917,-0.0195523,-0.0686536
9812457496,-6,-6,4,1,-1,-2,-1,-8,9812444483,0.0166016,-0.206543,0.993652,9812444483,1,1.5625,0.0625,9812444483,-0.10553,-0.00610352,-0.0351562,0.993774,-0.210917,-0.0195523,-0.0686536
9812457496,-6,-11,-2,-3,-3,-1,-3,-1,9812465577,0.0112305,-0.211426,0.99707,9812465577,2.75,2.4375,1.1875,9812465577,-0.10498,-0.00561523,-0.0349731,0.993835,-0.209846,-0.0185053,-0.0684012
9812466349,-3,3,-1,-2,-3,-1,0,4,9812465577,0.0112305,-0.211426,0.99707,9812465577,2.75,2.4375,1.1875,9812465577,-0.10498,-0.00561523,-0.0349731,0.993835,-0.209846,-0.0185053,-0.0684012
9812466349,2,-3,8,-2,-3,-4,-3,-3,9812465577,0.0112305,-0.211426,0.99707,9812465577,2.75,2.4375,1.1875,9812465577,-0.10498,-0.00561523,-0.0349731,0.993835,-0.209846,-0.0185053,-0.0684012
9812479912,-4,-6,1,0,-2,0,-8,-5,9812465577,0.0112305,-0.211426,0.99707,9812465577,2.75,2.4375,1.1875,9812465577,-0.10498,-0.00561523,-0.0349731,0.993835,-0.209846,-0.0185053,-0.0684012
9812479912,-1,-5,0,-2,-4,0,3,1,9812488035,0.0126953,-0.212402,1,9812488035,1.5625,1.625,1.125,9812488035,-0.104675,-0.00524902,-0.03479,0.993835,-0.209252,-0.0177176,-0.0681156
9812488810,6,4,6,3,-2,4,2,2,9812488035,0.0126953,-0.212402,1,9812488035,1.5625,1.625,1.125,9812488035,-0.104675,-0.00524902,-0.03479,0.993835,-0.209252,-0.0177176,-0.0681156
9812488810,-3,-5,-2,-1,2,0,0,3,9812488035,0.0126953,-0.212402,1,9812488035,1.5625,1.625,1.125,9812488035,-0.104675,-0.00524902,-0.03479,0.993835,-0.209252,-0.0177176,-0.0681156
9812503663,0,-1,-5,2,0,-3,-2,1,9812488035,0.0126953,-0.212402,1,9812488035,1.5625,1.625,1.125,9812488035,-0.104675,-0.00524902,-0.03479,0.993835,-0.209252,-0.0177176,-0.0681156
9812503663,3,-1,-10,3,0,-1,1,-1,9812504477,0.00585938,-0.202637,0.984863,9812504477,-1.375,-0.5625,0.5625,9812504477,-0.104858,-0.00518799,-0.034668,0.993835,-0.209629,-0.0175834,-0.0678831
9812505297,-3,-1,-7,-1,-4,-2,-4,-3,9812504477,0.00585938,-0.202637,0.984863,9812504477,-1.375,-0.5625,0.5625,9812504477,-0.104858,-0.00518799,-0.034668,0.993835,-0.209629,-0.0175834,-0.0678831
9812505297,-7,-7,-2,2,3,0,-7,-2,9812504477,0.00585938,-0.202637,0.984863,9812504477,-1.375,-0.5625,0.5625,9812504477,-0.104858,-0.00518799,-0.034668,0.993835,-0.209629,-0.0175834,-0.0678831
9812517329,4,2,-9,4,-1,4,3,1,9812504477,0.00585938,-0.202637,0.984863,9812504477,-1.375,-0.5625,0.5625,9812504477,-0.104858,-0.00518799,-0.034668,0.993835,-0.209629,-0.0175834,-0.0678831
9812517329,2,-3,-8,-1,-1,-4,-2,-4,9812525664,0.0141602,-0.206055,0.983887,9812525664,-2.0625,-1.375,1.375,9812525664,-0.105164,-0.00531006,-0.0344238,0.993835,-0.210244,-0.0177959,-0.067368
9812526364,-2,-1,-5,-2,0,2,-1,4,9812525664,0.0141602,-0.206055,0.983887,9812525664,-2.0625,-1.375,1.375,9812525664,-0.105164,-0.00531006,-0.0344238,0.993835,-0.210244,-0.0177959,-0.067368
9812526364,0,4,-6,-1,-2,3,0,-1,9812525664,0.0141602,-0.206055,0.983887,9812525664,-2.0625,-1.375,1.375,9812525664,-0.105164,-0.00531006,-0.0344238,0.993835,-0.210244,-0.0177959,-0.067368
9812539857,5,8,9,-3,0,2,2,4,9812525664,0.0141602,-0.206055,0.983887,9812525664,-2.0625,-1.375,1.375,9812525664,-0.105164,-0.00531006,-0.0344238,0.993835,-0.210244,-0.0177959,-0.067368
9812539857,-4,-2,-1,3,1,-3,-2,-5,9812548125,0.0253906,-0.220215,0.978516,9812548125,-1.8125,-0.8125,1.4375,9812548125,-0.105591,-0.00549316,-0.0341797,0.993774,-0.21109,-0.018137,-0.0668345
9812548895,-1,-1,-11,-2,-3,1,-2,-7,9812548125,0.0253906,-0.220215,0.978516,9812548125,-1.8125,-0.8125,1.4375,9812548125,-0.105591,-0.00549316,-0.0341797,0.993774,-0.21109,-0.018137,-0.0668345
9812548895,-3,-1,-3,-2,1,-2,-3,1,9812548125,0.0253906,-0.220215,0.978516,9812548125,-1.8125,-0.8125,1.4375,9812548125,-0.105591,-0.00549316,-0.0341797,0.993774,-0.21109,-0.018137,-0.0668345
9812563051,-2,-7,1,-1,-2,-4,0,0,9812548125,0.0253906,-0.220215,0.978516,9812548125,-1.8125,-0.8125,1.4375,9812548125,-0.105591,-0.00549316,-0.0341797,0.993774,-0.21109,-0.018137,-0.0668345
9812563051,-6,-5,1,-3,-2,3,1,-4,9812563855,0.0239258,-0.22168,0.996094,9812563855,0,1.1875,1.4375,9812563855,-0.105652,-0.00537109,-0.0339355,0.993774,-0.211225,-0.017847,-0.0663729
9812569796,-1,1,8,-1,-4,-2,-2,-1,9812563855,0.0239258,-0.22168,0.996094,9812563855,0,1.1875,1.4375,9812563855,-0.105652,-0.00537109,-0.0339355,0.993774,-0.211225,-0.017847,-0.0663729
9812569796,-2,-3,3,-4,-5,1,-1,-2,9812563855,0.0239258,-0.22168,0.996094,9812563855,0,1.1875,1.4375,9812563855,-0.105652,-0.00537109,-0.0339355,0.993774,-0.211225,-0.017847,-0.0663729
9812586213,0,-6,-5,-4,-2,2,-4,-2,9812563855,0.0239258,-0.22168,0.996094,9812563855,0,1.1875,1.4375,9812563855,-0.105652,-0.00537109,-0.0339355,0.993774,-0.211225,-0.017847,-0.0663729
9812586213,6,4,-6,-5,-3,3,1,0,9812586980,0.0239258,-0.220215,0.996582,9812586980,2.1875,1.9375,1.4375,9812586980,-0.105347,-0.00506592,-0.0337524,0.993835,-0.210638,-0.0171816,-0.0660792
9812587793,5,7,6,-2,-2,0,0,2,9812586980,0.0239258,-0.220215,0.996582,9812586980,2.1875,1.9375,1.4375,9812586980,-0.105347,-0.00506592,-0.0337524,0.993835,-0.210638,-0.0171816,-0.0660792
9812587793,1,3,-4,5,4,0,2,0,9812586980,0.0239258,-0.220215,0.996582,9812586980,2.1875,1.9375,1.4375,9812586980,-0.105347,-0.00506592,-0.0337524,0.993835,-0.210638,-0.0171816,-0.0660792
9812599995,-5,-5,-6,-4,4,-5,-2,-5,9812586980,0.0239258,-0.220215,0.996582,9812586980,2.1875,1.9375,1.4375,9812586980,-0.105347,-0.00506592,-0.0337524,0.993835,-0.210638,-0.0171816,-0.0660792
9812599995,-2,2,1,-4,0,-1,-1,-2,9812608227,0.0283203,-0.218262,1.00146,9812608227,1.75,0.9375,0.6875,9812608227,-0.105103,-0.00506592,-0.0336304,0.993835,-0.210143,-0.0171395,-0.0658385
9812608925,-2,-8,-4,-4,5,-3,-2,-3,9812608227,0.0283203,-0.218262,1.00146,9812608227,1.75,0.9375,0.6875,9812608227,-0.105103,-0.00506592,-0.0336304,0.993835,-0.210143,-0.0171395,-0.0658385
9812608925,-6,-8,-5,-4,-2,6,-3,-7,9812608227,0.0283203,-0.218262,1.00146,9812608227,1.75,0.9375,0.6875,9812608227,-0.105103,-0.00506592,-0.0336304,0.993835,-0.210143,-0.0171395,-0.0658385
9812623191,-2,0,-16,-2,-1,0,2,2,9812608227,0.0283203,-0.218262,1.00146,9812608227,1.75,0.9375,0.6875,9812608227,-0.105103,-0.00506592,-0.0336304,0.993835,-0.210143,-0.0171395,-0.0658385
9812623191,2,0,-8,4,-2,-3,5,-2,9812623852,0.0209961,-0.210938,0.999023,9812623852,-0.375,-0.6875,0.0625,9812623852,-0.105103,-0.00506592,-0.0336304,0.993835,-0.210143,-0.0171395,-0.0658385
9812629884,-4,-3,-5,1,-3,-2,-3,0,9812623852,0.0209961,-0.210938,0.999023,9812623852,-0.375,-0.6875,0.0625,9812623852,-0.105103,-0.00506592,-0.0336304,0.993835,-0.210143,-0.0171395,-0.0658385
9812629884,-3,-5,-4,-4,-1,-1,-2,0,9812623852,0.0209961,-0.210938,0.999023,9812623852,-0.375,-0.6875,0.0625,9812623852,-0.105103,-0.00506592,-0.0336304,0.993835,-0.210143,-0.0171395,-0.0658385
9812646741,0,1,1,-1,-2,-2,3,7,9812623852,0.0209961,-0.210938,0.999023,9812623852,-0.375,-0.6875,0.0625,9812623852,-0.105103,-0.00506592,-0.0336304,0.993835,-0.210143,-0.0171395,-0.0658385
9812646741,-5,2,2,0,-2,0,-1,3,9812647487,0.0244141,-0.213867,0.992188,9812647487,-0.6875,-0.9375,-0.125,9812647487,-0.105103,-0.00506592,-0.0336304,0.993835,-0.210143,-0.0171395,-0.0658385
9812648280,-2,0,-6,2,-2,-3,1,-7,9812647487,0.0244141,-0.213867,0.992188,9812647487,-0.6875,-0.9375,-0.125,9812647487,-0.105103,-0.00506592,-0.0336304,0.993835,-0.210143,-0.0171395,-0.0658385
9812648280,5,-2,-7,-4,-2,-2,6,4,9812647487,0.0244141,-0.213867,0.992188,9812647487,-0.6875,-0.9375,-0.125,9812647487,-0.105103,-0.00506592,-0.0336304,0.993835,-0.210143,-0.0171395,-0.0658385
9812660042,-1,1,0,4,0,1,-3,-2,9812647487,0.0244141,-0.213867,0.992188,9812647487,-0.6875,-0.9375,-0.125,9812647487,-0.105103,-0.00506592,-0.0336304,0.993835,-0.210143,-0.0171395,-0.0658385
9812660042,-5,-2,-4,-3,0,-3,-4,3,9812668260,0.019043,-0.219727,0.984863,9812668260,-1.0625,-1,0.125,9812668260,-0.105408,-0.00524902,-0.0336304,0.993835,-0.210752,-0.017524,-0.0657971
9812668891,4,2,1,2,-2,0,0,1,9812668260,0.019043,-0.219727,0.984863,9812668260,-1.0625,-1,0.125,9812668260,-0.105408,-0.00524902,-0.0336304,0.993835,-0.210752,-0.017524,-0.0657971
9812668891,2,-2,-1,-4,0,0,-3,-7,9812668260,0.019043,-0.219727,0.984863,9812668260,-1.0625,-1,0.125,9812668260,-0.105408,-0.00524902,-0.0336304,0.993835,-0.210752,-0.017524,-0.0657971
9812683239,-4,-5,1,-1,1,0,0,-7,9812668260,0.019043,-0.219727,0.984863,9812668260,-1.0625,-1,0.125,9812668260,-0.105408,-0.00524902,-0.0336304,0.993835,-0.210752,-0.017524,-0.0657971
9812683239,-2,2,-6,2,-2,3,0,0,9812683906,0.0185547,-0.222656,0.985352,9812683906,-0.5625,-0.25,-0.125,9812683906,-0.105408,-0.00524902,-0.0336304,0.993835,-0.210752,-0.017524,-0.0657971
9812690049,0,5,-3,-2,-4,-5,-2,-1,9812683906,0.0185547,-0.222656,0.985352,9812683906,-0.5625,-0.25,-0.125,9812683906,-0.105408,-0.00524902,-0.0336304,0.993835,-0.210752,-0.017524,-0.0657971
9812690049,2,-4,6,1,0,-2,-2,-6,9812683906,0.0185547,-0.222656,0.985352,9812683906,-0.5625,-0.25,-0.125,9812683906,-0.105408,-0.00524902,-0.0336304,0.993835,-0.210752,-0.017524,-0.0657971
9812706394,-5,-1,-8,-3,-4,-1,-4,-3,9812683906,0.0185547,-0.222656,0.985352,9812683906,-0.5625,-0.25,-0.125,9812683906,-0.105408,-0.00524902,-0.0336304,0.993835,-0.210752,-0.017524,-0.0657971
9812706394,1,2,0,-2,-1,3,-1,-4,9812707045,0.0209961,-0.219238,0.986328,9812707045,3.4375,1.625,0.4375,9812707045,-0.104919,-0.00500488,-0.0335693,0.993896,-0.209788,-0.0169936,-0.0657355
9812707842,-3,-8,-1,-4,0,-1,-1,-2,9812707045,0.0209961,-0.219238,0.986328,9812707045,3.4375,1.625,0.4375,9812707045,-0.104919,-0.00500488,-0.0335693,0.993896,-0.209788,-0.0169936,-0.0657355
9812707842,-2,-3,0,2,1,-3,-1,-3,9812707045,0.0209961,-0.219238,0.986328,9812707045,3.4375,1.625,0.4375,9812707045,-0.104919,-0.00500488,-0.0335693,0.993896,-0.209788,-0.0169936,-0.0657355
9812720091,1,1,4,-2,2,1,3,2,9812707045,0.0209961,-0.219238,0.986328,9812707045,3.4375,1.625,0.4375,9812707045,-0.104919,-0.00500488,-0.0335693,0.993896,-0.209788,-0.0169936,-0.0657355
9812720091,5,0,-5,1,-1,-4,0,-1,9812728267,0.0263672,-0.218262,0.978516,9812728267,3.125,2.0625,0.625,9812728267,-0.104492,-0.00476074,-0.0335083,0.993896,-0.208935,-0.0164668,-0.0656687
9812728923,-6,-7,-6,-4,-2,-3,0,0,9812728267,0.0263672,-0.218262,0.978516,9812728267,3.125,2.0625,0.625,9812728267,-0.104492,-0.00476074,-0.0335083,0.993896,-0.208935,-0.0164668,-0.0656687
9812728923,2,8,-4,0,-5,-4,0,0,9812728267,0.0263672,-0.218262,0.978516,9812728267,3.125,2.0625,0.625,9812728267,-0.104492,-0.00476074,-0.0335083,0.993896,-0.208935,-0.0164668,-0.0656687
9812743163,1,0,4,-3,-3,-2,0,1,9812728267,0.0263672,-0.218262,0.978516,9812728267,3.125,2.0625,0.625,9812728267,-0.104492,-0.00476074,-0.0335083,0.993896,-0.208935,-0.0164668,-0.0656687
9812743163,-4,-5,-5,-2,0,-3,-4,-1,9812743847,0.0219727,-0.214844,0.990723,9812743847,1.875,2,0.375,9812743847,-0.104187,-0.0045166,-0.0334473,0.993958,-0.208343,-0.0159488,-0.0656046
9812749968,1,0,2,0,2,-2,1,1,9812743847,0.0219727,-0.214844,0.990723,9812743847,1.875,2,0.375,9812743847,-0.104187,-0.0045166,-0.0334473,0.993958,-0.208343,-0.0159488,-0.0656046
9812749968,0,2,0,1,1,-3,-3,3,9812743847,0.0219727,-0.214844,0.990723,9812743847,1.875,2,0.375,9812743847,-0.104187,-0.0045166,-0.0334473,0.993958,-0.208343,-0.0159488,-0.0656046
9812766231,1,-5,-19,-1,-4,0,-1,-2,9812743847,0.0219727,-0.214844,0.990723,9812743847,1.875,2,0.375,9812743847,-0.104187,-0.0045166,-0.0334473,0.993958,-0.208343,-0.0159488,-0.0656046
9812766231,-1,-5,-1,1,-3,3,-1,-1,9812766986,0.0200195,-0.217773,0.99707,9812766986,1.25,1.1875,0.125,9812766986,-0.104065,-0.0043335,-0.0334473,0.993958,-0.208107,-0.0155766,-0.0656435
9812767787,1,-1,0,-4,-4,0,1,0,9812766986,0.0200195,-0.217773,0.99707,9812766986,1.25,1.1875,0.125,9812766986,-0.104065,-0.0043335,-0.0334473,0.993958,-0.208107,-0.0155766,-0.0656435
9812767787,-3,4,-4,-3,-5,5,-3,2,9812766986,0.0200195,-0.217773,0.99707,9812766986,1.25,1.1875,0.125,9812766986,-0.104065,-0.0043335,-0.0334473,0.993958,-0.208107,-0.0155766,-0.0656435
9812779906,-5,-6,-9,0,1,-3,-5,-2,9812766986,0.0200195,-0.217773,0.99707,9812766986,1.25,1.1875,0.125,9812766986,-0.104065,-0.0043335,-0.0334473,0.993958,-0.208107,-0.0155766,-0.0656435
9812779906,0,-1,-8,-1,2,-2,4,-1,9812788089,0.0229492,-0.219727,0.991699,9812788089,-1.25,-0.25,-1.25,9812788089,-0.10437,-0.00445557,-0.0336914,0.993958,-0.208717,-0.0158907,-0.0661021
9812788896,5,3,-4,2,0,-1,0,2,9812788089,0.0229492,-0.219727,0.991699,9812788089,-1.25,-0.25,-1.25,9812788089,-0.10437,-0.00445557,-0.0336914,0.993958,-0.208717,-0.0158907,-0.0661021
9812788896,4,1,-11,-1,1,-1,3,-3,9812788089,0.0229492,-0.219727,0.991699,9812788089,-1.25,-0.25,-1.25,9812788089,-0.10437,-0.00445557,-0.0336914,0.993958,-0.208717,-0.0158907,-0.0661021
9812803080,0,0,3,-3,-2,0,-4,2,9812788089,0.0229492,-0.219727,0.991699,9812788089,-1.25,-0.25,-1.25,9812788089,-0.10437,-0.00445557,-0.0336914,0.993958,-0.208717,-0.0158907,-0.0661021
9812803080,6,6,1,0,-1,-3,0,-1,9812803914,0.0151367,-0.220215,0.99707,9812803914,-0.625,-0.5625,-1.5625,9812803914,-0.104614,-0.00457764,-0.0339355,0.993896,-0.209191,-0.0162004,-0.0665569
9812809905,-6,-4,-1,-1,0,3,0,-4,9812803914,0.0151367,-0.220215,0.99707,9812803914,-0.625,-0.5625,-1.5625,9812803914,-0.104614,-0.00457764,-0.0339355,0.993896,-0.209191,-0.0162004,-0.0665569
9812809905,0,-9,-8,-2,-5,-3,-3,-7,9812803914,0.0151367,-0.220215,0.99707,9812803914,-0.625,-0.5625,-1.5625,9812803914,-0.104614,-0.00457764,-0.0339355,0.993896,-0.209191,-0.0162004,-0.0665569
9812826300,1,4,2,1,-4,-2,3,-1,9812803914,0.0151367,-0.220215,0.99707,9812803914,-0.625,-0.5625,-1.5625,9812803914,-0.104614,-0.00457764,-0.0339355,0.993896,-0.209191,-0.0162004,-0.0665569
9812826300,-1,-3,8,1,0,-4,-3,-1,9812827033,0.0175781,-0.208496,0.988281,9812827033,-0.4375,0,-1.4375,9812827033,-0.104614,-0.00463867,-0.0341797,0.993896,-0.209185,-0.0163728,-0.0670308
9812827845,-7,-12,-5,-2,-3,-5,2,-2,9812827033,0.0175781,-0.208496,0.988281,9812827033,-0.4375,0,-1.4375,9812827033,-0.104614,-0.00463867,-0.0341797,0.993896,-0.209185,-0.0163728,-0.0670308
9812827845,0,3,-3,3,-1,-1,6,2,9812827033,0.0175781,-0.208496,0.988281,9812827033,-0.4375,0,-1.4375,9812827033,-0.104614,-0.00463867,-0.0341797,0.993896,-0.209185,-0.0163728,-0.0670308
9812839893,3,6,3,-2,-1,-4,0,2,9812827033,0.0175781,-0.208496,0.988281,9812827033,-0.4375,0,-1.4375,9812827033,-0.104614,-0.00463867,-0.0341797,0.993896,-0.209185,-0.0163728,-0.0670308
9812839893,-7,-5,3,-3,-3,-1,-5,-2,9812848119,0.0136719,-0.20459,0.986816,9812848119,-0.5,0.5625,-0.875,9812848119,-0.104614,-0.00463867,-0.0341797,0.993896,-0.209185,-0.0163728,-0.0670308
9812848850,2,-2,-2,4,-1,-3,-2,-3,9812848119,0.0136719,-0.20459,0.986816,9812848119,-0.5,0.5625,-0.875,9812848119,-0.104614,-0.00463867,-0.0341797,0.993896,-0.209185,-0.0163728,-0.0670308
9812848850,2,3,-1,-2,-2,-3,0,-2,9812848119,0.0136719,-0.20459,0.986816,9812848119,-0.5,0.5625,-0.875,9812848119,-0.104614,-0.00463867,-0.0341797,0.993896,-0.209185,-0.0163728,-0.0670308
9812863105,-5,-6,-3,0,-2,-5,-5,-3,9812848119,0.0136719,-0.20459,0.986816,9812848119,-0.5,0.5625,-0.875,9812848119,-0.104614,-0.00463867,-0.0341797,0.993896,-0.209185,-0.0163728,-0.0670308
9812863105,-2,2,-10,4,-1,1,4,-3,9812863840,0.0078125,-0.198242,0.994141,9812863840,1.125,0.75,0.1875,9812863840,-0.104248,-0.00439453,-0.0341187,0.993958,-0.208469,-0.0158502,-0.0669672
9812869901,4,-2,-1,-1,-3,-2,4,-3,9812863840,0.0078125,-0.198242,0.994141,9812863840,1.125,0.75,0.1875,9812863840,-0.104248,-0.00439453,-0.0341187,0.993958,-0.208469,-0.0158502,-0.0669672
9812869901,-5,-4,0,-3,3,-1,-5,0,9812863840,0.0078125,-0.198242,0.994141,9812863840,1.125,0.75,0.1875,9812863840,-0.104248,-0.00439453,-0.0341187,0.993958,-0.208469,-0.0158502,-0.0669672
9812886209,-4,-6,0,-4,4,1,-2,-5,9812863840,0.0078125,-0.198242,0.994141,9812863840,1.125,0.75,0.1875,9812863840,-0.104248,-0.00439453,-0.0341187,0.993958,-0.208469,-0.0158502,-0.0669672
9812886209,2,1,-3,-1,-2,-1,-2,-1,9812886991,0.00878906,-0.204102,1.00439,9812886991,0.25,-0.0625,0.5625,9812886991,-0.104248,-0.00439453,-0.0341187,0.993958,-0.208469,-0.0158502,-0.0669672
9812887791,2,8,-5,-1,0,-4,-2,1,9812886991,0.00878906,-0.204102,1.00439,9812886991,0.25,-0.0625,0.5625,9812886991,-0.104248,-0.00439453,-0.0341187,0.993958,-0.208469,-0.0158502,-0.0669672
9812887791,-1,-8,-6,1,0,1,2,-1,9812886991,0.00878906,-0.204102,1.00439,9812886991,0.25,-0.0625,0.5625,9812886991,-0.104248,-0.00439453,-0.0341187,0.993958,-0.208469,-0.0158502,-0.0669672
9812899876,3,-2,-3,-2,-2,-4,-6,-3,9812886991,0.00878906,-0.204102,1.00439,9812886991,0.25,-0.0625,0.5625,9812886991,-0.104248,-0.00439453,-0.0341187,0.993958,-0.208469,-0.0158502,-0.0669672
9812899876,5,2,-4,3,-1,5,2,3,9812908036,0.00878906,-0.208496,0.996094,9812908036,1.1875,0.3125,0.625,9812908036,-0.104004,-0.00421143,-0.0339966,0.993958,-0.207986,-0.0154441,-0.0667639
9812908796,-4,2,2,-2,0,1,-2,2,9812908036,0.00878906,-0.208496,0.996094,9812908036,1.1875,0.3125,0.625,9812908036,-0.104004,-0.00421143,-0.0339966,0.993958,-0.207986,-0.0154441,-0.0667639
9812908796,-7,-6,-4,3,-3,-1,-5,-3,9812908036,0.00878906,-0.208496,0.996094,9812908036,1.1875,0.3125,0.625,9812908036,-0.104004,-0.00421143,-0.0339966,0.993958,-0.207986,-0.0154441,-0.0667639
9812931202,-2,-4,3,-4,-2,-4,-2,2,9812908036,0.00878906,-0.208496,0.996094,9812908036,1.1875,0.3125,0.625,9812908036,-0.104004,-0.00421143,-0.0339966,0.993958,-0.207986,-0.0154441,-0.0667639
9812931202,4,-1,-8,0,-1,-2,2,-1,9812931993,0.0175781,-0.209473,0.988281,9812931993,2.5625,0.0625,1.25,9812931993,-0.103577,-0.00421143,-0.0338135,0.994019,-0.207132,-0.0153777,-0.0664067
9812932791,-4,-6,-11,-1,1,1,-5,-1,9812931993,0.0175781,-0.209473,0.988281,9812931993,2.5625,0.0625,1.25,9812931993,-0.103577,-0.00421143,-0.0338135,0.994019,-0.207132,-0.0153777,-0.0664067
9812932791,3,1,-2,0,-2,-1,0,3,9812931993,0.0175781,-0.209473,0.988281,9812931993,2.5625,0.0625,1.25,9812931993,-0.103577,-0.00421143,-0.0338135,0.994019,-0.207132,-0.0153777,-0.0664067
9812946203,0,2,4,-1,1,-2,1,2,9812931993,0.0175781,-0.209473,0.988281,9812931993,2.5625,0.0625,1.25,9812931993,-0.103577,-0.00421143,-0.0338135,0.994019,-0.207132,-0.0153777,-0.0664067
9812946203,-4,-1,5,-1,1,-4,-2,-2,9812946989,0.0180664,-0.214844,0.985352,9812946989,0.0625,-0.75,1.125,9812946989,-0.103638,-0.0043335,-0.0335693,0.994019,-0.20725,-0.0155739,-0.0658945
9812947810,-1,2,-8,0,-4,5,1,2,9812946989,0.0180664,-0.214844,0.985352,9812946989,0.0625,-0.75,1.125,9812946989,-0.103638,-0.0043335,-0.0335693,0.994019,-0.20725,-0.0155739,-0.0658945
9812947810,1,5,-1,0,-2,-2,-4,3,9812946989,0.0180664,-0.214844,0.985352,9812946989,0.0625,-0.75,1.125,9812946989,-0.103638,-0.0043335,-0.0335693,0.994019,-0.20725,-0.0155739,-0.0658945
9812959909,1,-2,-5,-2,-1,0,1,0,9812946989,0.0180664,-0.214844,0.985352,9812946989,0.0625,-0.75,1.125,9812946989,-0.103638,-0.0043335,-0.0335693,0.994019,-0.20725,-0.0155739,-0.0658945
9812959909,-7,-2,-4,-3,-2,-2,-5,-2,9812968190,0.0161133,-0.213867,0.992676,9812968190,1,-0.875,0.9375,9812968190,-0.103516,-0.0045166,-0.0334473,0.994019,-0.206992,-0.0159045,-0.0656147
9812968852,0,3,3,-1,-4,-2,-3,1,9812968190,0.0161133,-0.213867,0.992676,9812968190,1,-0.875,0.9375,9812968190,-0.103516,-0.0045166,-0.0334473,0.994019,-0.206992,-0.0159045,-0.0656147
9812968852,-2,1,-5,0,-5,2,-4,0,9812968190,0.0161133,-0.213867,0.992676,9812968190,1,-0.875,0.9375,9812968190,-0.103516,-0.0045166,-0.0334473,0.994019,-0.206992,-0.0159045,-0.0656147
9812983097,-3,-5,-2,1,0,1,-1,-4,9812968190,0.0161133,-0.213867,0.992676,9812968190,1,-0.875,0.9375,9812968190,-0.103516,-0.0045166,-0.0334473,0.994019,-0.206992,-0.0159045,-0.0656147
9812983097,1,-1,1,-5,3,-3,-3,-1,9812983891,0.0175781,-0.211914,0.986328,9812983891,1.3125,-0.5,0.8125,9812983891,-0.103333,-0.00457764,-0.0332642,0.99408,-0.20663,-0.0159763,-0.065243
9812989921,3,0,1,-3,-2,0,-1,-5,9812983891,0.0175781,-0.211914,0.986328,9812983891,1.3125,-0.5,0.8125,9812983891,-0.103333,-0.00457764,-0.0332642,0.99408,-0.20663,-0.0159763,-0.065243
9812989921,2,2,-4,-4,0,-6,-2,-1,9812983891,0.0175781,-0.211914,0.986328,9812983891,1.3125,-0.5,0.8125,9812983891,-0.103333,-0.00457764,-0.0332642,0.99408,-0.20663,-0.0159763,-0.065243
9813006299,5,0,-6,-3,-3,1,-1,2,9812983891,0.0175781,-0.211914,0.986328,9812983891,1.3125,-0.5,0.8125,9812983891,-0.103333,-0.00457764,-0.0332642,0.99408,-0.20663,-0.0159763,-0.065243
9813006299,0,3,-4,-1,-3,3,2,4,9813007091,0.0180664,-0.213867,0.98584,9813007091,-1.125,-1.0625,0.5625,9813007091,-0.103638,-0.00476074,-0.0331421,0.994019,-0.207228,-0.0163348,-0.0649553
9813007844,2,-1,-3,0,-3,-2,-3,-2,9813007091,0.0180664,-0.213867,0.98584,9813007091,-1.125,-1.0625,0.5625,9813007091,-0.103638,-0.00476074,-0.0331421,0.994019,-0.207228,-0.0163348,-0.0649553
9813007844,-1,0,-2,-4,1,-4,-1,-1,9813007091,0.0180664,-0.213867,0.98584,9813007091,-1.125,-1.0625,0.5625,9813007091,-0.103638,-0.00476074,-0.0331421,0.994019,-0.207228,-0.0163348,-0.0649553
9813019931,3,2,-3,0,-4,-6,-4,-2,9813007091,0.0180664,-0.213867,0.98584,9813007091,-1.125,-1.0625,0.5625,9813007091,-0.103638,-0.00476074,-0.0331421,0.994019,-0.207228,-0.0163348,-0.0649553
9813019931,-4,-1,-1,0,-2,1,-4,3,9813028136,0.0219727,-0.216797,0.988281,9813028136,0.5,-0.625,0.9375,9813028136,-0.103638,-0.00476074,-0.0331421,0.994019,-0.207228,-0.0163348,-0.0649553
9813028920,-7,-8,-7,-7,2,0,-2,-1,9813028136,0.0219727,-0.216797,0.988281,9813028136,0.5,-0.625,0.9375,9813028136,-0.103638,-0.00476074,-0.0331421,0.994019,-0.207228,-0.0163348,-0.0649553
9813028920,0,-5,-3,-7,0,-2,0,1,9813028136,0.0219727,-0.216797,0.988281,9813028136,0.5,-0.625,0.9375,9813028136,-0.103638,-0.00476074,-0.0331421,0.994019,-0.207228,-0.0163348,-0.0649553
9813043105,-2,0,4,-4,0,0,-1,3,9813028136,0.0219727,-0.216797,0.988281,9813028136,0.5,-0.625,0.9375,9813028136,-0.103638,-0.00476074,-0.0331421,0.994019,-0.207228,-0.0163348,-0.0649553
9813043105,-2,-3,-7,-3,-1,-1,-3,-5,9813043880,0.0219727,-0.224609,0.986816,9813043880,2.4375,1,0.25,9813043880,-0.103455,-0.00469971,-0.0331421,0.994019,-0.20686,-0.0162013,-0.0649695
9813049879,0,-1,-6,-2,-4,2,1,3,9813043880,0.0219727,-0.224609,0.986816,9813043880,2.4375,1,0.25,9813043880,-0.103455,-0.00469971,-0.0331421,0.994019,-0.20686,-0.0162013,-0.0649695
9813049879,10,2,-10,-2,-1,2,1,4,9813043880,0.0219727,-0.224609,0.986816,9813043880,2.4375,1,0.25,9813043880,-0.103455,-0.00469971,-0.0331421,0.994019,-0.20686,-0.0162013,-0.0649695
9813066270,-2,-4,-14,-2,0,4,0,-1,9813043880,0.0219727,-0.224609,0.986816,9813043880,2.4375,1,0.25,9813043880,-0.103455,-0.00469971,-0.0331421,0.994019,-0.20686,-0.0162013,-0.0649695
9813066270,2,-2,-7,-2,-2,-3,2,0,9813067003,0.0244141,-0.212891,0.997559,9813067003,1.4375,0.875,0.125,9813067003,-0.10321,-0.00463867,-0.0331421,0.99408,-0.20638,-0.0160643,-0.0649884
9813067802,0,3,4,2,0,1,3,-1,9813067003,0.0244141,-0.212891,0.997559,9813067003,1.4375,0.875,0.125,9813067003,-0.10321,-0.00463867,-0.0331421,0.99408,-0.20638,-0.0160643,-0.0649884
9813067802,-4,-4,12,-2,-1,-3,-4,-4,9813067003,0.0244141,-0.212891,0.997559,9813067003,1.4375,0.875,0.125,9813067003,-0.10321,-0.00463867,-0.0331421,0.99408,-0.20638,-0.0160643,-0.0649884
9813079933,-8,-8,-10,-1,0,1,-4,-6,9813067003,0.0244141,-0.212891,0.997559,9813067003,1.4375,0.875,0.125,9813067003,-0.10321,-0.00463867,-0.0331421,0.99408,-0.20638,-0.0160643,-0.0649884
9813079933,1,-2,7,-4,-1,0,-3,3,9813088105,0.0166016,-0.211426,0.995117,9813088105,0.3125,0.125,0,9813088105,-0.10321,-0.00463867,-0.0331421,0.99408,-0.20638,-0.0160643,-0.0649884
9813088876,2,0,-3,-2,-1,-4,-3,-1,9813088105,0.0166016,-0.211426,0.995117,9813088105,0.3125,0.125,0,9813088105,-0.10321,-0.00463867,-0.0331421,0.99408,-0.20638,-0.0160643,-0.0649884
9813088876,-5,-1,0,-4,-3,1,4,0,9813088105,0.0166016,-0.211426,0.995117,9813088105,0.3125,0.125,0,9813088105,-0.10321,-0.00463867,-0.0331421,0.99408,-0.20638,-0.0160643,-0.0649884
9813103056,2,2,-1,2,-3,-3,3,2,9813088105,0.0166016,-0.211426,0.995117,9813088105,0.3125,0.125,0,9813088105,-0.10321,-0.00463867,-0.0331421,0.99408,-0.20638,-0.0160643,-0.0649884
9813103056,3,3,-2,-4,0,-2,-2,-2,9813103843,0.0185547,-0.209961,0.996582,9813103843,0.4375,-0.1875,0.0625,9813103843,-0.10321,-0.00463867,-0.0331421,0.99408,-0.20638,-0.0160643,-0.0649884
9813109924,-5,-8,-9,-3,-1,-4,-4,2,9813103843,0.0185547,-0.209961,0.996582,9813103843,0.4375,-0.1875,0.0625,9813103843,-0.10321,-0.00463867,-0.0331421,0.99408,-0.20638,-0.0160643,-0.0649884
9813109924,-3,-5,-3,-1,0,2,-2,-4,9813103843,0.0185547,-0.209961,0.996582,9813103843,0.4375,-0.1875,0.0625,9813103843,-0.10321,-0.00463867,-0.0331421,0.99408,-0.20638,-0.0160643,-0.0649884
9813126267,6,3,-1,-1,-2,-1,4,0,9813103843,0.0185547,-0.209961,0.996582,9813103843,0.4375,-0.1875,0.0625,9813103843,-0.10321,-0.00463867,-0.0331421,0.99408,-0.20638,-0.0160643,-0.0649884
9813126267,3,-1,1,-4,-4,-3,-2,-1,9813127011,0.0175781,-0.209473,0.997559,9813127011,-1.25,-1.375,-0.5625,9813127011,-0.103455,-0.00488281,-0.0332031,0.994019,-0.206848,-0.016578,-0.0650536
9813127815,-8,-9,-5,-4,-1,-1,-2,-6,9813127011,0.0175781,-0.209473,0.997559,9813127011,-1.25,-1.375,-0.5625,9813127011,-0.103455,-0.00488281,-0.0332031,0.994019,-0.206848,-0.016578,-0.0650536
9813127815,4,6,-7,-3,-4,3,0,-6,9813127011,0.0175781,-0.209473,0.997559,9813127011,-1.25,-1.375,-0.5625,9813127011,-0.103455,-0.00488281,-0.0332031,0.994019,-0.206848,-0.016578,-0.0650536
9813139931,2,-2,-12,-3,-3,-2,3,-2,9813127011,0.0175781,-0.209473,0.997559,9813127011,-1.25,-1.375,-0.5625,9813127011,-0.103455,-0.00488281,-0.0332031,0.994019,-0.206848,-0.016578,-0.0650536
9813139931,-4,-1,-2,-1,0,-4,-2,1,9813148150,0.015625,-0.208984,0.995117,9813148150,-0.625,-1.4375,-0.5,9813148150,-0.103577,-0.00512695,-0.0332031,0.994019,-0.207081,-0.0170715,-0.0650022
9813148922,3,1,-6,2,2,-7,-2,-4,9813148150,0.015625,-0.208984,0.995117,9813148150,-0.625,-1.4375,-0.5,9813148150,-0.103577,-0.00512695,-0.0332031,0.994019,-0.207081,-0.0170715,-0.0650022
9813148922,6,0,-3,-1,0,-5,-1,5,9813148150,0.015625,-0.208984,0.995117,9813148150,-0.625,-1.4375,-0.5,9813148150,-0.103577,-0.00512695,-0.0332031,0.994019,-0.207081,-0.0170715,-0.0650022
9813163089,-3,2,-6,-6,3,-3,-5,-4,9813148150,0.015625,-0.208984,0.995117,9813148150,-0.625,-1.4375,-0.5,9813148150,-0.103577,-0.00512695,-0.0332031,0.994019,-0.207081,-0.0170715,-0.0650022
9813163089,0,-4,-2,2,-1,-2,-2,-3,9813163887,0.0195312,-0.218262,0.988281,9813163887,1.625,-0.5,0,9813163887,-0.103394,-0.00524902,-0.0332031,0.994019,-0.206702,-0.0173021,-0.0649791
9813169852,-3,-1,2,-4,-1,0,1,3,9813163887,0.0195312,-0.218262,0.988281,9813163887,1.625,-0.5,0,9813163887,-0.103394,-0.00524902,-0.0332031,0.994019,-0.206702,-0.0173021,-0.0649791
9813169852,-4,2,-9,1,-4,-6,-2,-1,9813163887,0.0195312,-0.218262,0.988281,9813163887,1.625,-0.5,0,9813163887,-0.103394,-0.00524902,-0.0332031,0.994019,-0.206702,-0.0173021,-0.0649791
9813186224,-5,-8,-2,1,0,0,-11,-5,9813163887,0.0195312,-0.218262,0.988281,9813163887,1.625,-0.5,0,9813163887,-0.103394,-0.00524902,-0.0332031,0.994019,-0.206702,-0.0173021,-0.0649791
9813186224,1,1,2,1,-4,-2,3,0,9813187026,0.019043,-0.207031,0.98291,9813187026,2,0.5625,0,9813187026,-0.103027,-0.00518799,-0.0332031,0.99408,-0.205974,-0.017157,-0.0649994
9813187815,0,3,13,2,2,0,2,-3,9813187026,0.019043,-0.207031,0.98291,9813187026,2,0.5625,0,9813187026,-0.103027,-0.00518799,-0.0332031,0.99408,-0.205974,-0.017157,-0.0649994
9813187815,0,-6,-8,-4,-2,-2,-1,0,9813187026,0.019043,-0.207031,0.98291,9813187026,2,0.5625,0,9813187026,-0.103027,-0.00518799,-0.0332031,0.99408,-0.205974,-0.017157,-0.0649994
9813199909,4,-2,1,0,0,-3,1,4,9813187026,0.019043,-0.207031,0.98291,9813187026,2,0.5625,0,9813187026,-0.103027,-0.00518799,-0.0332031,0.99408,-0.205974,-0.017157,-0.0649994
9813199909,1,6,-6,-1,-6,-5,3,2,9813208044,0.0117188,-0.202148,0.980469,9813208044,2.6875,1.1875,0.625,9813208044,-0.102539,-0.00494385,-0.0331421,0.994141,-0.20501,-0.0166272,-0.0649365
9813208819,-1,-2,-3,1,-1,-4,-6,1,9813208044,0.0117188,-0.202148,0.980469,9813208044,2.6875,1.1875,0.625,9813208044,-0.102539,-0.00494385,-0.0331421,0.994141,-0.20501,-0.0166272,-0.0649365
9813208819,-3,-3,-4,-1,-3,1,-2,0,9813208044,0.0117188,-0.202148,0.980469,9813208044,2.6875,1.1875,0.625,9813208044,-0.102539,-0.00494385,-0.0331421,0.994141,-0.20501,-0.0166272,-0.0649365
9813223089,-3,3,2,-2,-6,0,0,2,9813208044,0.0117188,-0.202148,0.980469,9813208044,2.6875,1.1875,0.625,9813208044,-0.102539,-0.00494385,-0.0331421,0.994141,-0.20501,-0.0166272,-0.0649365
9813223089,-1,-2,-2,-1,2,-1,-6,-2,9813223845,0.0209961,-0.212402,0.98584,9813223845,2.625,0.9375,1.0625,9813223845,-0.102173,-0.00482178,-0.032959,0.994202,-0.204288,-0.0163234,-0.064604
9813229827,-4,-4,-4,-3,-4,0,1,-2,9813223845,0.0209961,-0.212402,0.98584,9813223845,2.625,0.9375,1.0625,9813223845,-0.102173,-0.00482178,-0.032959,0.994202,-0.204288,-0.0163234,-0.064604
9813229827,-1,1,2,2,1,-5,-1,0,9813223845,0.0209961,-0.212402,0.98584,9813223845,2.625,0.9375,1.0625,9813223845,-0.102173,-0.00482178,-0.032959,0.994202,-0.204288,-0.0163234,-0.064604
9813246195,-2,0,-3,-4,-1,-3,1,3,9813223845,0.0209961,-0.212402,0.98584,9813223845,2.625,0.9375,1.0625,9813223845,-0.102173,-0.00482178,-0.032959,0.994202,-0.204288,-0.0163234,-0.064604
9813246195,-6,-9,-1,-2,-2,-4,-3,-7,9813247034,0.0146484,-0.202637,0.987793,9813247034,-2.875,-1.25,0.375,9813247034,-0.102661,-0.00500488,-0.0328369,0.994141,-0.205257,-0.016694,-0.0643147
9813247814,-1,1,-5,-1,-3,-7,1,0,9813247034,0.0146484,-0.202637,0.987793,9813247034,-2.875,-1.25,0.375,9813247034,-0.102661,-0.00500488,-0.0328369,0.994141,-0.205257,-0.016694,-0.0643147
9813247814,4,5,8,-3,-1,0,2,-1,9813247034,0.0146484,-0.202637,0.987793,9813247034,-2.875,-1.25,0.375,9813247034,-0.102661,-0.00500488,-0.0328369,0.994141,-0.205257,-0.016694,-0.0643147
9813259951,-5,-5,7,0,0,-2,-6,0,9813247034,0.0146484,-0.202637,0.987793,9813247034,-2.875,-1.25,0.375,9813247034,-0.102661,-0.00500488,-0.0328369,0.994141,-0.205257,-0.016694,-0.0643147
9813259951,1,-4,-14,0,-1,1,-2,0,9813268151,0.0205078,-0.207031,0.994141,9813268151,-2.75,-1.3125,0.4375,9813268151,-0.103149,-0.00524902,-0.0327759,0.99408,-0.206223,-0.0171984,-0.0641342
9813268895,5,1,-4,1,0,-4,-1,5,9813268151,0.0205078,-0.207031,0.994141,9813268151,-2.75,-1.3125,0.4375,9813268151,-0.103149,-0.00524902,-0.0327759,0.99408,-0.206223,-0.0171984,-0.0641342
9813268895,0,2,-4,4,-1,0,-1,0,9813268151,0.0205078,-0.207031,0.994141,9813268151,-2.75,-1.3125,0.4375,9813268151,-0.103149,-0.00524902,-0.0327759,0.99408,-0.206223,-0.0171984,-0.0641342
9813283139,-3,-2,-10,6,0,-5,-2,-2,9813268151,0.0205078,-0.207031,0.994141,9813268151,-2.75,-1.3125,0.4375,9813268151,-0.103149,-0.00524902,-0.0327759,0.99408,-0.206223,-0.0171984,-0.0641342
9813283139,-2,-3,1,-3,-2,2,-6,1,9813283914,0.027832,-0.223633,0.992188,9813283914,0,-0.625,0.0625,9813283914,-0.103149,-0.00524902,-0.0327759,0.99408,-0.206223,-0.0171984,-0.0641342
9813289977,3,1,1,-2,-3,2,1,-1,9813283914,0.027832,-0.223633,0.992188,9813283914,0,-0.625,0.0625,9813283914,-0.103149,-0.00524902,-0.0327759,0.99408,-0.206223,-0.0171984,-0.0641342
9813289977,-7,-11,4,-3,0,1,-4,-2,9813283914,0.027832,-0.223633,0.992188,9813283914,0,-0.625,0.0625,9813283914,-0.103149,-0.00524902,-0.0327759,0.99408,-0.206223,-0.0171984,-0.0641342
9813306270,2,1,-4,1,0,0,2,-3,9813283914,0.027832,-0.223633,0.992188,9813283914,0,-0.625,0.0625,9813283914,-0.103149,-0.00524902,-0.0327759,0.99408,-0.206223,-0.0171984,-0.0641342
9813306270,4,4,6,-3,1,0,-3,2,9813307070,0.0185547,-0.209473,0.983887,9813307070,0.9375,0.3125,-0.5625,9813307070,-0.103149,-0.00524902,-0.0327759,0.99408,-0.206223,-0.0171984,-0.0641342
9813307845,2,-4,1,-3,-1,1,-2,-7,9813307070,0.0185547,-0.209473,0.983887,9813307070,0.9375,0.3125,-0.5625,9813307070,-0.103149,-0.00524902,-0.0327759,0.99408,-0.206223,-0.0171984,-0.0641342
9813307845,-4,-3,-8,1,-3,2,-4,-1,9813307070,0.0185547,-0.209473,0.983887,9813307070,0.9375,0.3125,-0.5625,9813307070,-0.103149,-0.00524902,-0.0327759,0.99408,-0.206223,-0.0171984,-0.0641342
9813321117,-4,4,-7,-5,1,2,1,-2,9813307070,0.0185547,-0.209473,0.983887,9813307070,0.9375,0.3125,-0.5625,9813307070,-0.103149,-0.00524902,-0.0327759,0.99408,-0.206223,-0.0171984,-0.0641342
9813321117,0,1,-2,4,0,0,-1,-1,9813328141,0.0078125,-0.189941,0.966797,9813328141,1.25,0.75,0.1875,9813328141,-0.102783,-0.00506592,-0.0327148,0.994141,-0.205503,-0.0167983,-0.0640578
9813328889,-4,-4,-10,-1,3,1,-6,-1,9813328141,0.0078125,-0.189941,0.966797,9813328141,1.25,0.75,0.1875,9813328141,-0.102783,-0.00506592,-0.0327148,0.994141,-0.205503,-0.0167983,-0.0640578
9813328889,5,-2,-2,-3,-1,-2,1,-3,9813328141,0.0078125,-0.189941,0.966797,9813328141,1.25,0.75,0.1875,9813328141,-0.102783,-0.00506592,-0.0327148,0.994141,-0.205503,-0.0167983,-0.0640578
9813343141,2,-2,14,-4,2,-1,0,-2,9813328141,0.0078125,-0.189941,0.966797,9813328141,1.25,0.75,0.1875,9813328141,-0.102783,-0.00506592,-0.0327148,0.994141,-0.205503,-0.0167983,-0.0640578
9813343141,-5,0,0,-4,0,-4,-3,-3,9813343918,0.00878906,-0.189453,0.968262,9813343918,-0.75,0.3125,2.0625,9813343918,-0.102783,-0.00488281,-0.0323486,0.994141,-0.205517,-0.0163589,-0.0633653
9813349887,0,4,10,1,-3,1,2,-1,9813343918,0.00878906,-0.189453,0.968262,9813343918,-0.75,0.3125,2.0625,9813343918,-0.102783,-0.00488281,-0.0323486,0.994141,-0.205517,-0.0163589,-0.0633653
9813349887,4,3,5,-2,-2,-1,-2,1,9813343918,0.00878906,-0.189453,0.968262,9813343918,-0.75,0.3125,2.0625,9813343918,-0.102783,-0.00488281,-0.0323486,0.994141,-0.205517,-0.0163589,-0.0633653
9813366249,-1,1,-12,2,-2,1,-1,2,9813343918,0.00878906,-0.189453,0.968262,9813343918,-0.75,0.3125,2.0625,9813343918,-0.102783,-0.00488281,-0.0323486,0.994141,-0.205517,-0.0163589,-0.0633653
9813366249,-6,-1,0,-2,-3,-6,2,-2,9813367073,0.0136719,-0.200684,0.975098,9813367073,-2.75,0.0625,2.9375,9813367073,-0.10321,-0.00476074,-0.0318604,0.994141,-0.206397,-0.016043,-0.0624132
9813367838,3,0,-2,1,1,1,-1,4,9813367073,0.0136719,-0.200684,0.975098,9813367073,-2.75,0.0625,2.9375,9813367073,-0.10321,-0.00476074,-0.0318604,0.994141,-0.206397,-0.016043,-0.0624132
9813367838,-2,1,-2,-2,-1,1,3,-3,9813367073,0.0136719,-0.200684,0.975098,9813367073,-2.75,0.0625,2.9375,9813367073,-0.10321,-0.00476074,-0.0318604,0.994141,-0.206397,-0.016043,-0.0624132
9813379851,-7,-8,-7,-3,-4,2,0,4,9813367073,0.0136719,-0.200684,0.975098,9813367073,-2.75,0.0625,2.9375,9813367073,-0.10321,-0.00476074,-0.0318604,0.994141,-0.206397,-0.016043,-0.0624132
9813379851,2,-2,4,-2,-1,2,-1,4,9813388166,0.0136719,-0.209961,0.983887,9813388166,-2.8125,0,3,9813388166,-0.103699,-0.00463867,-0.031311,0.99408,-0.207388,-0.0157169,-0.0613353
9813388912,0,-2,-9,-4,-4,3,-6,0,9813388166,0.0136719,-0.209961,0.983887,9813388166,-2.8125,0,3,9813388166,-0.103699,-0.00463867,-0.031311,0.99408,-0.207388,-0.0157169,-0.0613353
9813388912,-5,-2,-5,-6,-1,-8,-6,0,9813388166,0.0136719,-0.209961,0.983887,9813388166,-2.8125,0,3,9813388166,-0.103699,-0.00463867,-0.031311,0.99408,-0.207388,-0.0157169,-0.0613353
9813403108,3,2,-3,1,0,-4,-1,-4,9813388166,0.0136719,-0.209961,0.983887,9813388166,-2.8125,0,3,9813388166,-0.103699,-0.00463867,-0.031311,0.99408,-0.207388,-0.0157169,-0.0613353
9813403108,7,5,-4,-1,1,2,0,1,9813403915,0.015625,-0.225586,1.00928,9813403915,-2.875,-0.1875,2.8125,9813403915,-0.10437,-0.00457764,-0.0308228,0.994019,-0.208748,-0.0155351,-0.0603652
9813409860,-3,-1,-8,-2,3,-3,0,-2,9813403915,0.015625,-0.225586,1.00928,9813403915,-2.875,-0.1875,2.8125,9813403915,-0.10437,-0.00457764,-0.0308228,0.994019,-0.208748,-0.0155351,-0.0603652
9813409860,-1,-1,-7,-3,-2,-5,-4,2,9813403915,0.015625,-0.225586,1.00928,9813403915,-2.875,-0.1875,2.8125,9813403915,-0.10437,-0.00457764,-0.0308228,0.994019,-0.208748,-0.0155351,-0.0603652
9813426287,4,8,10,3,-5,1,3,5,9813403915,0.015625,-0.225586,1.00928,9813403915,-2.875,-0.1875,2.8125,9813403915,-0.10437,-0.00457764,-0.0308228,0.994019,-0.208748,-0.0155351,-0.0603652
9813426287,-2,-7,-3,-1,-5,-1,5,1,9813427045,0.0283203,-0.231445,1.01855,9813427045,-1.1875,0.625,3.1875,9813427045,-0.104736,-0.00457764,-0.0302734,0.994019,-0.209496,-0.0154426,-0.0592676
9813427799,-9,-8,-2,-1,-5,-1,-1,-5,9813427045,0.0283203,-0.231445,1.01855,9813427045,-1.1875,0.625,3.1875,9813427045,-0.104736,-0.00457764,-0.0302734,0.994019,-0.209496,-0.0154426,-0.0592676
9813427799,-1,1,-12,-3,-2,-4,-4,-2,9813427045,0.0283203,-0.231445,1.01855,9813427045,-1.1875,0.625,3.1875,9813427045,-0.104736,-0.00457764,-0.0302734,0.994019,-0.209496,-0.0154426,-0.0592676
9813439900,-1,2,-4,-4,-1,1,-1,1,9813427045,0.0283203,-0.231445,1.01855,9813427045,-1.1875,0.625,3.1875,9813427045,-0.104736,-0.00457764,-0.0302734,0.994019,-0.209496,-0.0154426,-0.0592676
9813439900,-3,-2,-5,-4,0,0,-1,-6,9813448104,0.0405273,-0.236816,1.04736,9813448104,1.6875,1.875,2.6875,9813448104,-0.104614,-0.0045166,-0.0299072,0.994019,-0.209255,-0.0152372,-0.0585519
9813448856,-1,5,-1,1,-3,-2,1,2,9813448104,0.0405273,-0.236816,1.04736,9813448104,1.6875,1.875,2.6875,9813448104,-0.104614,-0.0045166,-0.0299072,0.994019,-0.209255,-0.0152372,-0.0585519
9813448856,-1,-4,5,0,-2,2,7,2,9813448104,0.0405273,-0.236816,1.04736,9813448104,1.6875,1.875,2.6875,9813448104,-0.104614,-0.0045166,-0.0299072,0.994019,-0.209255,-0.0152372,-0.0585519
9813463083,-6,-10,-5,-6,1,0,-1,-1,9813448104,0.0405273,-0.236816,1.04736,9813448104,1.6875,1.875,2.6875,9813448104,-0.104614,-0.0045166,-0.0299072,0.994019,-0.209255,-0.0152372,-0.0585519
9813463083,-7,-4,-1,-1,-2,1,-4,-6,9813463895,0.0351562,-0.222656,1.04443,9813463895,3.3125,1,0.875,9813463895,-0.104065,-0.00457764,-0.0297852,0.99408,-0.208149,-0.0153008,-0.0583047
9813469924,2,-1,2,-6,-2,0,-3,3,9813463895,0.0351562,-0.222656,1.04443,9813463895,3.3125,1,0.875,9813463895,-0.104065,-0.00457764,-0.0297852,0.99408,-0.208149,-0.0153008,-0.0583047
9813469924,-1,-2,8,3,-1,-3,-1,-2,9813463895,0.0351562,-0.222656,1.04443,9813463895,3.3125,1,0.875,9813463895,-0.104065,-0.00457764,-0.0297852,0.99408,-0.208149,-0.0153008,-0.0583047
9813485650,-6,0,5,2,3,-2,-4,-4,9813463895,0.0351562,-0.222656,1.04443,9813463895,3.3125,1,0.875,9813463895,-0.104065,-0.00457764,-0.0297852,0.99408,-0.208149,-0.0153008,-0.0583047
9813485650,-1,0,-6,-1,-1,-4,4,1,9813486395,0.0463867,-0.19043,1.05127,9813486395,2.75,-1.75,0.9375,9813486395,-0.10321,-0.00518799,-0.0296021,0.994202,-0.206407,-0.016427,-0.0578299
9813492417,-5,1,-6,-1,-4,3,-3,-4,9813486395,0.0463867,-0.19043,1.05127,9813486395,2.75,-1.75,0.9375,9813486395,-0.10321,-0.00518799,-0.0296021,0.994202,-0.206407,-0.016427,-0.0578299
9813492417,-4,-4,-17,-1,-2,1,-6,-2,9813486395,0.0463867,-0.19043,1.05127,9813486395,2.75,-1.75,0.9375,9813486395,-0.10321,-0.00518799,-0.0296021,0.994202,-0.206407,-0.016427,-0.0578299
9813508736,4,2,-10,-4,-6,3,1,3,9813486395,0.0463867,-0.19043,1.05127,9813486395,2.75,-1.75,0.9375,9813486395,-0.10321,-0.00518799,-0.0296021,0.994202,-0.206407,-0.016427,-0.0578299
9813508736,8,10,3,-4,1,1,4,3,9813509504,0.0664062,-0.218262,1.05566,9813509504,1.3125,-5.6875,2.0625,9813509504,-0.103027,-0.00671387,-0.0291748,0.994202,-0.20596,-0.0193627,-0.0566688
9813510312,-2,-2,-2,-4,-1,-5,-1,-4,9813509504,0.0664062,-0.218262,1.05566,9813509504,1.3125,-5.6875,2.0625,9813509504,-0.103027,-0.00671387,-0.0291748,0.994202,-0.20596,-0.0193627,-0.0566688
9813510312,0,-1,-3,2,-2,0,-2,0,9813509504,0.0664062,-0.218262,1.05566,9813509504,1.3125,-5.6875,2.0625,9813509504,-0.103027,-0.00671387,-0.0291748,0.994202,-0.20596,-0.0193627,-0.0566688
9813523100,2,9,-6,0,-4,-3,-5,-3,9813509504,0.0664062,-0.218262,1.05566,9813509504,1.3125,-5.6875,2.0625,9813509504,-0.103027,-0.00671387,-0.0291748,0.994202,-0.20596,-0.0193627,-0.0566688
9813523100,-5,-3,-2,-4,2,-4,-4,-4,9813523869,0.0649414,-0.253906,1.0293,9813523869,-0.4375,-7.4375,-0.5625,9813523869,-0.103577,-0.00848389,-0.0291748,0.994141,-0.206973,-0.022914,-0.0562948
9813529904,-1,-8,-13,-5,1,-1,-4,1,9813523869,0.0649414,-0.253906,1.0293,9813523869,-0.4375,-7.4375,-0.5625,9813523869,-0.103577,-0.00848389,-0.0291748,0.994141,-0.206973,-0.022914,-0.0562948
9813529904,1,3,1,-3,1,1,1,-4,9813523869,0.0649414,-0.253906,1.0293,9813523869,-0.4375,-7.4375,-0.5625,9813523869,-0.103577,-0.00848389,-0.0291748,0.994141,-0.206973,-0.022914,-0.0562948
9813545787,-3,-5,4,-2,2,-5,-2,-2,9813523869,0.0649414,-0.253906,1.0293,9813523869,-0.4375,-7.4375,-0.5625,9813523869,-0.103577,-0.00848389,-0.0291748,0.994141,-0.206973,-0.022914,-0.0562948
9813545787,-6,-5,-12,0,0,2,-5,-3,9813546355,0.0439453,-0.263672,1.02051,9813546355,6.3125,-6.125,-3.6875,9813546355,-0.103088,-0.00982666,-0.0297241,0.994141,-0.205904,-0.0256694,-0.0571238
9813552570,3,-1,12,1,-2,-2,-3,1,9813546355,0.0439453,-0.263672,1.02051,9813546355,6.3125,-6.125,-3.6875,9813546355,-0.103088,-0.00982666,-0.0297241,0.994141,-0.205904,-0.0256694,-0.0571238
9813552570,0,0,-4,-2,0,-4,-2,0,9813546355,0.0439453,-0.263672,1.02051,9813546355,6.3125,-6.125,-3.6875,9813546355,-0.103088,-0.00982666,-0.0297241,0.994141,-0.205904,-0.0256694,-0.0571238
9813568952,-1,0,-4,0,-5,0,1,0,9813546355,0.0439453,-0.263672,1.02051,9813546355,6.3125,-6.125,-3.6875,9813546355,-0.103088,-0.00982666,-0.0297241,0.994141,-0.205904,-0.0256694,-0.0571238
9813568952,1,0,-7,1,-3,-3,2,1,9813569566,0.0361328,-0.253418,0.951172,9813569566,10.0625,-6.0625,-5.5,9813569566,-0.102051,-0.0111084,-0.0305176,0.994202,-0.203728,-0.0283204,-0.0584708
9813570346,4,6,-6,-4,0,-1,4,3,9813569566,0.0361328,-0.253418,0.951172,9813569566,10.0625,-6.0625,-5.5,9813569566,-0.102051,-0.0111084,-0.0305176,0.994202,-0.203728,-0.0283204,-0.0584708
9813570346,-3,-1,-7,-3,-5,2,4,1,9813569566,0.0361328,-0.253418,0.951172,9813569566,10.0625,-6.0625,-5.5,9813569566,-0.102051,-0.0111084,-0.0305176,0.994202,-0.203728,-0.0283204,-0.0584708
9813583127,-2,0,-3,-1,-2,-1,0,-1,9813569566,0.0361328,-0.253418,0.951172,9813569566,10.0625,-6.0625,-5.5,9813569566,-0.102051,-0.0111084,-0.0305176,0.994202,-0.203728,-0.0283204,-0.0584708
9813583127,-6,-7,1,0,1,-5,-4,1,9813583933,0.0161133,-0.236816,0.885254,9813583933,4.9375,-6.5,-8.4375,9813583933,-0.101868,-0.0122681,-0.0318604,0.994202,-0.203266,-0.0308899,-0.0609185
9813589982,-4,-2,8,-1,1,-2,-2,-3,9813583933,0.0161133,-0.236816,0.885254,9813583933,4.9375,-6.5,-8.4375,9813583933,-0.101868,-0.0122681,-0.0318604,0.994202,-0.203266,-0.0308899,-0.0609185
9813589982,-4,-14,-7,-3,1,2,-3,-3,9813583933,0.0161133,-0.236816,0.885254,9813583933,4.9375,-6.5,-8.4375,9813583933,-0.101868,-0.0122681,-0.0318604,0.994202,-0.203266,-0.0308899,-0.0609185
9813605848,2,-1,-6,-6,1,0,-3,-6,9813583933,0.0161133,-0.236816,0.885254,9813583933,4.9375,-6.5,-8.4375,9813583933,-0.101868,-0.0122681,-0.0318604,0.994202,-0.203266,-0.0308899,-0.0609185
9813605848,1,-1,2,-2,-1,1,-1,3,9813606435,-0.000488281,-0.191406,0.842773,9813606435,4.5,-3.125,-9.0625,9813606435,-0.101257,-0.0126343,-0.0333252,0.994202,-0.201971,-0.0318763,-0.0637809
9813612471,-1,-2,-10,1,-4,0,2,-7,9813606435,-0.000488281,-0.191406,0.842773,9813606435,4.5,-3.125,-9.0625,9813606435,-0.101257,-0.0126343,-0.0333252,0.994202,-0.201971,-0.0318763,-0.0637809
9813612471,4,6,3,-1,-4,-3,-3,0,9813606435,-0.000488281,-0.191406,0.842773,9813606435,4.5,-3.125,-9.0625,9813606435,-0.101257,-0.0126343,-0.0333252,0.994202,-0.201971,-0.0318763,-0.0637809
9813628928,-2,4,-2,-6,-5,-2,0,0,9813606435,-0.000488281,-0.191406,0.842773,9813606435,4.5,-3.125,-9.0625,9813606435,-0.101257,-0.0126343,-0.0333252,0.994202,-0.201971,-0.0318763,-0.0637809
9813628928,-4,2,-9,-1,-3,-2,0,-7,9813629645,-0.0102539,-0.171387,0.85791,9813629645,0.75,1.6875,-8.25,9813629645,-0.101074,-0.0120239,-0.034729,0.994202,-0.2016,-0.0309338,-0.066706
9813630282,-2,0,-8,0,0,-1,-1,5,9813629645,-0.0102539,-0.171387,0.85791,9813629645,0.75,1.6875,-8.25,9813629645,-0.101074,-0.0120239,-0.034729,0.994202,-0.2016,-0.0309338,-0.066706
9813630282,4,2,-1,-2,-2,-1,-6,1,9813629645,-0.0102539,-0.171387,0.85791,9813629645,0.75,1.6875,-8.25,9813629645,-0.101074,-0.0120239,-0.034729,0.994202,-0.2016,-0.0309338,-0.066706
9813643243,-6,-13,-7,0,3,-5,-5,-7,9813629645,-0.0102539,-0.171387,0.85791,9813629645,0.75,1.6875,-8.25,9813629645,-0.101074,-0.0120239,-0.034729,0.994202,-0.2016,-0.0309338,-0.066706
9813643243,-6,-5,-4,-2,1,2,-3,-1,9813643891,-0.0107422,-0.161133,0.886719,9813643891,-4.3125,5.375,-7.125,9813643891,-0.10144,-0.0108032,-0.0360107,0.99408,-0.202364,-0.0287884,-0.069488
9813650057,3,-3,0,-1,-2,3,0,-2,9813643891,-0.0107422,-0.161133,0.886719,9813643891,-4.3125,5.375,-7.125,9813643891,-0.10144,-0.0108032,-0.0360107,0.99408,-0.202364,-0.0287884,-0.069488
9813650057,-4,-11,1,-8,-2,-2,-1,-1,9813643891,-0.0107422,-0.161133,0.886719,9813643891,-4.3125,5.375,-7.125,9813643891,-0.10144,-0.0108032,-0.0360107,0.99408,-0.202364,-0.0287884,-0.069488
9813665751,-4,-2,6,-3,-3,0,-3,-3,9813643891,-0.0107422,-0.161133,0.886719,9813643891,-4.3125,5.375,-7.125,9813643891,-0.10144,-0.0108032,-0.0360107,0.99408,-0.202364,-0.0287884,-0.069488
9813665751,4,-1,-2,3,-4,0,-3,1,9813666479,-0.00537109,-0.160645,0.948242,9813666479,-0.9375,11.25,-3.625,9813666479,-0.101135,-0.00854492,-0.0368042,0.994141,-0.201885,-0.0244365,-0.071531
9813672532,3,8,3,-1,-2,3,3,5,9813666479,-0.00537109,-0.160645,0.948242,9813666479,-0.9375,11.25,-3.625,9813666479,-0.101135,-0.00854492,-0.0368042,0.994141,-0.201885,-0.0244365,-0.071531
9813672532,-6,-1,-1,0,-2,1,1,-1,9813666479,-0.00537109,-0.160645,0.948242,9813666479,-0.9375,11.25,-3.625,9813666479,-0.101135,-0.00854492,-0.0368042,0.994141,-0.201885,-0.0244365,-0.071531
9813688914,-2,0,-8,-6,-4,-1,-3,-5,9813666479,-0.00537109,-0.160645,0.948242,9813666479,-0.9375,11.25,-3.625,9813666479,-0.101135,-0.00854492,-0.0368042,0.994141,-0.201885,-0.0244365,-0.071531
9813688914,5,5,1,-3,-5,-1,-1,0,9813689588,0.00390625,-0.167969,1.01709,9813689588,0.1875,13.5625,0.8125,9813689588,-0.100525,-0.00598145,-0.0368652,0.994202,-0.200828,-0.0193065,-0.0721765
9813690358,-1,-2,-2,-3,0,-8,-4,-1,9813689588,0.00390625,-0.167969,1.01709,9813689588,0.1875,13.5625,0.8125,9813689588,-0.100525,-0.00598145,-0.0368652,0.994202,-0.200828,-0.0193065,-0.0721765
9813690358,-12,-7,-7,-2,1,-4,-2,-3,9813689588,0.00390625,-0.167969,1.01709,9813689588,0.1875,13.5625,0.8125,9813689588,-0.100525,-0.00598145,-0.0368652,0.994202,-0.200828,-0.0193065,-0.0721765
9813703111,5,1,9,2,2,-2,-2,3,9813689588,0.00390625,-0.167969,1.01709,9813689588,0.1875,13.5625,0.8125,9813689588,-0.100525,-0.00598145,-0.0368652,0.994202,-0.200828,-0.0193065,-0.0721765
9813703111,-2,1,-1,-3,-4,-1,0,-1,9813703903,0.0102539,-0.194824,1.06006,9813703903,2.375,12.875,4.1875,9813703903,-0.0997925,-0.00366211,-0.036377,0.994324,-0.199528,-0.0145434,-0.071679
9813710116,1,-5,3,0,-1,-5,-6,-2,9813703903,0.0102539,-0.194824,1.06006,9813703903,2.375,12.875,4.1875,9813703903,-0.0997925,-0.00366211,-0.036377,0.994324,-0.199528,-0.0145434,-0.071679
9813710116,4,4,-2,-1,4,1,6,-5,9813703903,0.0102539,-0.194824,1.06006,9813703903,2.375,12.875,4.1875,9813703903,-0.0997925,-0.00366211,-0.036377,0.994324,-0.199528,-0.0145434,-0.071679
9813725825,7,2,8,0,-3,1,3,5,9813703903,0.0102539,-0.194824,1.06006,9813703903,2.375,12.875,4.1875,9813703903,-0.0997925,-0.00366211,-0.036377,0.994324,-0.199528,-0.0145434,-0.071679
9813725825,-4,-6,-5,-1,1,0,-3,-2,9813726431,0.0170898,-0.212402,1.09326,9813726431,4.125,10.8125,3.75,9813726431,-0.098938,-0.00177002,-0.0359497,0.994446,-0.197951,-0.0106342,-0.071214
9813732585,-3,1,-6,-1,1,-2,1,0,9813726431,0.0170898,-0.212402,1.09326,9813726431,4.125,10.8125,3.75,9813726431,-0.098938,-0.00177002,-0.0359497,0.994446,-0.197951,-0.0106342,-0.071214
9813732585,-1,8,5,1,-1,-2,-6,-4,9813726431,0.0170898,-0.212402,1.09326,9813726431,4.125,10.8125,3.75,9813726431,-0.098938,-0.00177002,-0.0359497,0.994446,-0.197951,-0.0106342,-0.071214
9813756725,-6,-4,-8,-1,5,-6,-1,1,9813726431,0.0170898,-0.212402,1.09326,9813726431,4.125,10.8125,3.75,9813726431,-0.098938,-0.00177002,-0.0359497,0.994446,-0.197951,-0.0106342,-0.071214
9813756725,-4,-5,0,-2,0,-2,-2,-3,9813757495,0.0146484,-0.206055,1.12109,9813757495,2.5,4.8125,1.375,9813757495,-0.0982666,-0.0010376,-0.0357666,0.994507,-0.196653,-0.00909325,-0.0709989
9813758310,-3,3,-1,2,-3,1,1,1,9813757495,0.0146484,-0.206055,1.12109,9813757495,2.5,4.8125,1.375,9813757495,-0.0982666,-0.0010376,-0.0357666,0.994507,-0.196653,-0.00909325,-0.0709989
9813758310,4,2,-1,0,-2,-4,1,2,9813757495,0.0146484,-0.206055,1.12109,9813757495,2.5,4.8125,1.375,9813757495,-0.0982666,-0.0010376,-0.0357666,0.994507,-0.196653,-0.00909325,-0.0709989
9813763094,0,-1,-10,-2,-6,-3,1,2,9813757495,0.0146484,-0.206055,1.12109,9813757495,2.5,4.8125,1.375,9813757495,-0.0982666,-0.0010376,-0.0357666,0.994507,-0.196653,-0.00909325,-0.0709989
9813763094,1,1,-1,-7,-2,-3,1,2,9813763859,0.00927734,-0.208984,1.07227,9813763859,-0.8125,-2.5625,0.5625,9813763859,-0.0983276,-0.00140381,-0.0356445,0.994507,-0.196751,-0.00980204,-0.0706836
9813769825,-1,9,-1,-1,1,-3,3,-1,9813763859,0.00927734,-0.208984,1.07227,9813763859,-0.8125,-2.5625,0.5625,9813763859,-0.0983276,-0.00140381,-0.0356445,0.994507,-0.196751,-0.00980204,-0.0706836
9813769825,-3,-5,-11,-1,0,-1,-2,1,9813763859,0.00927734,-0.208984,1.07227,9813763859,-0.8125,-2.5625,0.5625,9813763859,-0.0983276,-0.00140381,-0.0356445,0.994507,-0.196751,-0.00980204,-0.0706836
9813785552,-4,-3,0,-2,-2,1,3,4,9813763859,0.00927734,-0.208984,1.07227,9813763859,-0.8125,-2.5625,0.5625,9813763859,-0.0983276,-0.00140381,-0.0356445,0.994507,-0.196751,-0.00980204,-0.0706836
9813785552,0,1,-11,-2,-3,2,-2,1,9813786334,0.0209961,-0.223145,1.04346,9813786334,-3.3125,-8.25,-1.375,9813786334,-0.0991211,-0.00292969,-0.0357056,0.994385,-0.198232,-0.0129052,-0.0704936
9813792392,-6,-7,-2,1,1,0,0,-4,9813786334,0.0209961,-0.223145,1.04346,9813786334,-3.3125,-8.25,-1.375,9813786334,-0.0991211,-0.00292969,-0.0357056,0.994385,-0.198232,-0.0129052,-0.0704936
9813792392,-11,-6,-8,0,2,-3,-4,-5,9813786334,0.0209961,-0.223145,1.04346,9813786334,-3.3125,-8.25,-1.375,9813786334,-0.0991211,-0.00292969,-0.0357056,0.994385,-0.198232,-0.0129052,-0.0704936
9813808704,2,2,-8,-1,-2,-4,-3,-1,9813786334,0.0209961,-0.223145,1.04346,9813786334,-3.3125,-8.25,-1.375,9813786334,-0.0991211,-0.00292969,-0.0357056,0.994385,-0.198232,-0.0129052,-0.0704936
9813808704,5,2,1,-4,0,0,-1,-3,9813809528,0.0219727,-0.212891,0.990723,9813809528,-2.0625,-8.6875,-3.1875,9813809528,-0.0996704,-0.0045166,-0.0361328,0.994324,-0.199224,-0.0161854,-0.0710241
9813810299,-3,-6,-11,-4,0,2,-2,1,9813809528,0.0219727,-0.212891,0.990723,9813809528,-2.0625,-8.6875,-3.1875,9813809528,-0.0996704,-0.0045166,-0.0361328,0.994324,-0.199224,-0.0161854,-0.0710241
9813810299,4,5,-4,-5,-3,2,2,1,9813809528,0.0219727,-0.212891,0.990723,9813809528,-2.0625,-8.6875,-3.1875,9813809528,-0.0996704,-0.0045166,-0.0361328,0.994324,-0.199224,-0.0161854,-0.0710241
9813823067,4,5,1,2,-3,-3,3,2,9813809528,0.0219727,-0.212891,0.990723,9813809528,-2.0625,-8.6875,-3.1875,9813809528,-0.0996704,-0.0045166,-0.0361328,0.994324,-0.199224,-0.0161854,-0.0710241
9813823067,-5,2,7,-4,0,-5,1,-1,9813823840,0.0234375,-0.198242,0.946289,9813823840,2.6875,-4.875,-2.8125,9813823840,-0.0993042,-0.00549316,-0.0365601,0.994324,-0.198412,-0.0181861,-0.0716873
9813829871,-3,-4,-6,-2,-1,-4,-9,-4,9813823840,0.0234375,-0.198242,0.946289,9813823840,2.6875,-4.875,-2.8125,9813823840,-0.0993042,-0.00549316,-0.0365601,0.994324,-0.198412,-0.0181861,-0.0716873
9813829871,3,-3,4,-1,-5,-1,5,1,9813823840,0.0234375,-0.198242,0.946289,9813823840,2.6875,-4.875,-2.8125,9813823840,-0.0993042,-0.00549316,-0.0365601,0.994324,-0.198412,-0.0181861,-0.0716873
9813853732,-4,0,-4,-4,-2,-2,-4,-5,9813823840,0.0234375,-0.198242,0.946289,9813823840,2.6875,-4.875,-2.8125,9813823840,-0.0993042,-0.00549316,-0.0365601,0.994324,-0.198412,-0.0181861,-0.0716873
9813853732,-3,-7,-13,1,-1,-6,-3,0,9813854508,0.015625,-0.179199,0.911133,9813854508,5.875,-0.625,-1.5625,9813854508,-0.0982666,-0.00567627,-0.0368042,0.994446,-0.196316,-0.0185238,-0.072159
9813855323,-2,-2,0,-4,-4,1,3,3,9813854508,0.015625,-0.179199,0.911133,9813854508,5.875,-0.625,-1.5625,9813854508,-0.0982666,-0.00567627,-0.0368042,0.994446,-0.196316,-0.0185238,-0.072159
9813855323,-5,-4,-2,-3,-3,-3,-5,-1,9813854508,0.015625,-0.179199,0.911133,9813854508,5.875,-0.625,-1.5625,9813854508,-0.0982666,-0.00567627,-0.0368042,0.994446,-0.196316,-0.0185238,-0.072159
9813868775,-5,-5,-4,-3,0,-1,-6,-3,9813854508,0.015625,-0.179199,0.911133,9813854508,5.875,-0.625,-1.5625,9813854508,-0.0982666,-0.00567627,-0.0368042,0.994446,-0.196316,-0.0185238,-0.072159
9813868775,-2,-1,-3,3,0,4,8,1,9813869597,0.00830078,-0.181152,0.912109,9813869597,4.3125,1.5625,0.8125,9813869597,-0.0975342,-0.00531006,-0.0366211,0.994507,-0.19487,-0.0177063,-0.0718772
9813870248,4,2,1,0,0,-2,4,2,9813869597,0.00830078,-0.181152,0.912109,9813869597,4.3125,1.5625,0.8125,9813869597,-0.0975342,-0.00531006,-0.0366211,0.994507,-0.19487,-0.0177063,-0.0718772
9813870248,3,-2,-4,-6,0,-1,-3,3,9813869597,0.00830078,-0.181152,0.912109,9813869597,4.3125,1.5625,0.8125,9813869597,-0.0975342,-0.00531006,-0.0366211,0.994507,-0.19487,-0.0177063,-0.0718772
9813883231,1,-2,-7,5,0,2,0,-1,9813869597,0.00830078,-0.181152,0.912109,9813869597,4.3125,1.5625,0.8125,9813869597,-0.0975342,-0.00531006,-0.0366211,0.994507,-0.19487,-0.0177063,-0.0718772
9813883231,0,-1,-7,-1,2,-3,-2,3,9813883954,0.0107422,-0.197266,0.944336,9813883954,2.5,3,2.5,9813883954,-0.097229,-0.00469971,-0.0362549,0.994568,-0.194307,-0.0163991,-0.0712719
9813890035,-3,0,-6,-5,-2,-2,-3,-1,9813883954,0.0107422,-0.197266,0.944336,9813883954,2.5,3,2.5,9813883954,-0.097229,-0.00469971,-0.0362549,0.994568,-0.194307,-0.0163991,-0.0712719
9813890035,-3,-6,-6,1,-6,-1,5,-4,9813883954,0.0107422,-0.197266,0.944336,9813883954,2.5,3,2.5,9813883954,-0.097229,-0.00469971,-0.0362549,0.994568,-0.194307,-0.0163991,-0.0712719
9813905707,3,-2,-2,-4,-4,0,2,-4,9813883954,0.0107422,-0.197266,0.944336,9813883954,2.5,3,2.5,9813883954,-0.097229,-0.00469971,-0.0362549,0.994568,-0.194307,-0.0163991,-0.0712719
9813905707,-4,-3,-6,-7,-1,2,-1,-3,9813906408,0.0170898,-0.208008,0.981445,9813906408,1.75,3.75,2.5,9813906408,-0.0970459,-0.00402832,-0.0358887,0.994629,-0.193996,-0.0149796,-0.0706767
9813912494,0,0,0,-2,-3,0,-5,-5,9813906408,0.0170898,-0.208008,0.981445,9813906408,1.75,3.75,2.5,9813906408,-0.0970459,-0.00402832,-0.0358887,0.994629,-0.193996,-0.0149796,-0.0706767
9813912494,-1,-2,-2,-2,0,-2,-4,4,9813906408,0.0170898,-0.208008,0.981445,9813906408,1.75,3.75,2.5,9813906408,-0.0970459,-0.00402832,-0.0358887,0.994629,-0.193996,-0.0149796,-0.0706767
9813928842,4,2,-3,-3,-5,2,0,3,9813906408,0.0170898,-0.208008,0.981445,9813906408,1.75,3.75,2.5,9813906408,-0.0970459,-0.00402832,-0.0358887,0.994629,-0.193996,-0.0149796,-0.0706767
9813928842,1,-2,-5,1,-2,1,3,2,9813929557,0.00976562,-0.215332,1.01025,9813929557,-0.5625,3.75,1.8125,9813929557,-0.09729,-0.0032959,-0.0355835,0.994568,-0.194531,-0.0134802,-0.0702031
9813930313,-2,-3,-11,0,-2,-2,0,-2,9813929557,0.00976562,-0.215332,1.01025,9813929557,-0.5625,3.75,1.8125,9813929557,-0.09729,-0.0032959,-0.0355835,0.994568,-0.194531,-0.0134802,-0.0702031
9813930313,1,1,-5,-2,-2,-3,3,2,9813929557,0.00976562,-0.215332,1.01025,9813929557,-0.5625,3.75,1.8125,9813929557,-0.09729,-0.0032959,-0.0355835,0.994568,-0.194531,-0.0134802,-0.0702031
9813943340,-1,0,2,-1,1,-2,1,-3,9813929557,0.00976562,-0.215332,1.01025,9813929557,-0.5625,3.75,1.8125,9813929557,-0.09729,-0.0032959,-0.0355835,0.994568,-0.194531,-0.0134802,-0.0702031
9813943340,-4,-5,-2,-1,-5,-2,-3,-5,9813943959,0.0170898,-0.223145,1.02979,9813943959,0.125,2.8125,1.25,9813943959,-0.0974731,-0.00280762,-0.0354614,0.994568,-0.194936,-0.0124981,-0.070053
9813950079,-1,-12,-7,0,1,-1,-2,-2,9813943959,0.0170898,-0.223145,1.02979,9813943959,0.125,2.8125,1.25,9813943959,-0.0974731,-0.00280762,-0.0354614,0.994568,-0.194936,-0.0124981,-0.070053
9813950079,11,13,27,-2,-8,-3,6,4,9813943959,0.0170898,-0.223145,1.02979,9813943959,0.125,2.8125,1.25,9813943959,-0.0974731,-0.00280762,-0.0354614,0.994568,-0.194936,-0.0124981,-0.070053
9813965816,-5,-8,18,-7,1,-2,-4,-7,9813943959,0.0170898,-0.223145,1.02979,9813943959,0.125,2.8125,1.25,9813943959,-0.0974731,-0.00280762,-0.0354614,0.994568,-0.194936,-0.0124981,-0.070053
9813965816,-8,-18,-39,4,8,-2,-1,-6,9813966437,0.0253906,-0.212402,1.01807,9813966437,1.0625,2.3125,-0.875,9813966437,-0.0974121,-0.00262451,-0.0356445,0.994568,-0.194824,-0.0121652,-0.070454
9813972547,12,15,18,1,-9,-2,6,10,9813966437,0.0253906,-0.212402,1.01807,9813966437,1.0625,2.3125,-0.875,9813966437,-0.0974121,-0.00262451,-0.0356445,0.994568,-0.194824,-0.0121652,-0.070454
9813972547,2,11,21,3,-1,3,2,2,9813966437,0.0253906,-0.212402,1.01807,9813966437,1.0625,2.3125,-0.875,9813966437,-0.0974121,-0.00262451,-0.0356445,0.994568,-0.194824,-0.0121652,-0.070454
9813988875,-15,-19,-41,-1,8,-2,-5,-9,9813966437,0.0253906,-0.212402,1.01807,9813966437,1.0625,2.3125,-0.875,9813966437,-0.0974121,-0.00262451,-0.0356445,0.994568,-0.194824,-0.0121652,-0.070454
9813988875,12,12,0,3,-4,-1,3,1,9813989620,0.0200195,-0.189453,1.01904,9813989620,0.4375,0.875,-1.5625,9813989620,-0.097229,-0.00256348,-0.0359497,0.994568,-0.194455,-0.0120901,-0.0710754
9813990405,2,6,26,-2,-1,1,5,-5,9813989620,0.0200195,-0.189453,1.01904,9813989620,0.4375,0.875,-1.5625,9813989620,-0.097229,-0.00256348,-0.0359497,0.994568,-0.194455,-0.0120901,-0.0710754
9813990405,-14,-18,-20,0,8,0,-5,-11,9813989620,0.0200195,-0.189453,1.01904,9813989620,0.4375,0.875,-1.5625,9813989620,-0.097229,-0.00256348,-0.0359497,0.994568,-0.194455,-0.0120901,-0.0710754
9814003104,-3,-2,-8,3,-5,3,-3,-1,9813989620,0.0200195,-0.189453,1.01904,9813989620,0.4375,0.875,-1.5625,9813989620,-0.097229,-0.00256348,-0.0359497,0.994568,-0.194455,-0.0120901,-0.0710754
9814003104,4,12,29,1,-7,0,1,3,9814003925,0.0249023,-0.180664,1.01709,9814003925,-0.25,-0.4375,-0.25,9814003925,-0.097168,-0.00262451,-0.0359497,0.994568,-0.194327,-0.0122071,-0.0710639
9814010058,-6,-13,-14,-8,1,-5,-3,-3,9814003925,0.0249023,-0.180664,1.01709,9814003925,-0.25,-0.4375,-0.25,9814003925,-0.097168,-0.00262451,-0.0359497,0.994568,-0.194327,-0.0122071,-0.0710639
9814010058,-7,-9,-23,1,1,-1,-4,-7,9814003925,0.0249023,-0.180664,1.01709,9814003925,-0.25,-0.4375,-0.25,9814003925,-0.097168,-0.00262451,-0.0359497,0.994568,-0.194327,-0.0122071,-0.0710639
9814025436,9,12,25,-2,-6,1,8,10,9814003925,0.0249023,-0.180664,1.01709,9814003925,-0.25,-0.4375,-0.25,9814003925,-0.097168,-0.00262451,-0.0359497,0.994568,-0.194327,-0.0122071,-0.0710639
9814025436,-2,8,15,0,1,-1,2,-2,9814033258,0.0268555,-0.195312,1.02441,9814033258,-0.4375,-0.375,-0.0625,9814033258,-0.097168,-0.00268555,-0.0359497,0.994568,-0.194323,-0.0123285,-0.0710521
9814033913,-8,-11,-25,2,4,4,-2,-4,9814033258,0.0268555,-0.195312,1.02441,9814033258,-0.4375,-0.375,-0.0625,9814033258,-0.097168,-0.00268555,-0.0359497,0.994568,-0.194323,-0.0123285,-0.0710521
9814033913,1,10,-5,1,-2,2,3,7,9814033258,0.0268555,-0.195312,1.02441,9814033258,-0.4375,-0.375,-0.0625,9814033258,-0.097168,-0.00268555,-0.0359497,0.994568,-0.194323,-0.0123285,-0.0710521
9814048806,5,3,16,0,-4,-1,-1,3,9814033258,0.0268555,-0.195312,1.02441,9814033258,-0.4375,-0.375,-0.0625,9814033258,-0.097168,-0.00268555,-0.0359497,0.994568,-0.194323,-0.0123285,-0.0710521
9814048806,-10,-9,-10,4,2,-1,-7,-2,9814049527,0.0117188,-0.199219,1.01904,9814049527,1.75,-1,-0.9375,9814049527,-0.0968018,-0.00280762,-0.0360718,0.994629,-0.193583,-0.012569,-0.0712785
9814050345,-2,-1,-12,2,1,-1,2,-4,9814049527,0.0117188,-0.199219,1.01904,9814049527,1.75,-1,-0.9375,9814049527,-0.0968018,-0.00280762,-0.0360718,0.994629,-0.193583,-0.012569,-0.0712785
9814050345,5,7,8,0,-3,-4,3,-1,9814049527,0.0117188,-0.199219,1.01904,9814049527,1.75,-1,-0.9375,9814049527,-0.0968018,-0.00280762,-0.0360718,0.994629,-0.193583,-0.012569,-0.0712785
9814062540,-8,-7,-18,-8,-2,-2,-3,-4,9814049527,0.0117188,-0.199219,1.01904,9814049527,1.75,-1,-0.9375,9814049527,-0.0968018,-0.00280762,-0.0360718,0.994629,-0.193583,-0.012569,-0.0712785
9814062540,3,-3,-8,-4,-4,-6,3,2,9814070603,0.000488281,-0.188477,0.998535,9814070603,0.75,-2.6875,-0.6875,9814070603,-0.0966187,-0.00317383,-0.0361328,0.994629,-0.193187,-0.0132962,-0.071331
9814077512,9,7,8,-1,-1,-1,-2,3,9814070603,0.000488281,-0.188477,0.998535,9814070603,0.75,-2.6875,-0.6875,9814070603,-0.0966187,-0.00317383,-0.0361328,0.994629,-0.193187,-0.0132962,-0.071331
9814077512,-3,-5,-8,-3,0,2,-2,-2,9814070603,0.000488281,-0.188477,0.998535,9814070603,0.75,-2.6875,-0.6875,9814070603,-0.0966187,-0.00317383,-0.0361328,0.994629,-0.193187,-0.0132962,-0.071331
9814085738,-3,-3,-12,-1,0,1,2,-3,9814070603,0.000488281,-0.188477,0.998535,9814070603,0.75,-2.6875,-0.6875,9814070603,-0.0966187,-0.00317383,-0.0361328,0.994629,-0.193187,-0.0132962,-0.071331
9814085738,5,8,9,0,-4,5,1,-4,9814086414,0.00927734,-0.192871,0.977051,9814086414,-1.125,-3.6875,0.8125,9814086414,-0.0968628,-0.00372314,-0.0359497,0.994629,-0.193645,-0.0143712,-0.0708586
9814092575,-3,-3,5,-2,-1,-1,-1,3,9814086414,0.00927734,-0.192871,0.977051,9814086414,-1.125,-3.6875,0.8125,9814086414,-0.0968628,-0.00372314,-0.0359497,0.994629,-0.193645,-0.0143712,-0.0708586
9814092575,-9,-9,-8,-2,1,1,-3,-6,9814086414,0.00927734,-0.192871,0.977051,9814086414,-1.125,-3.6875,0.8125,9814086414,-0.0968628,-0.00372314,-0.0359497,0.994629,-0.193645,-0.0143712,-0.0708586
9814108531,0,6,-7,1,0,0,1,0,9814086414,0.00927734,-0.192871,0.977051,9814086414,-1.125,-3.6875,0.8125,9814086414,-0.0968628,-0.00372314,-0.0359497,0.994629,-0.193645,-0.0143712,-0.0708586
9814108531,-4,2,4,-1,-2,2,-2,1,9814109352,0.0195312,-0.211914,0.974609,9814109352,1,-1.875,1,9814109352,-0.0969238,-0.00408936,-0.0357056,0.994629,-0.193746,-0.0150568,-0.0703007
9814114875,-10,-3,-2,-2,-2,-6,-3,-2,9814109352,0.0195312,-0.211914,0.974609,9814109352,1,-1.875,1,9814109352,-0.0969238,-0.00408936,-0.0357056,0.994629,-0.193746,-0.0150568,-0.0703007
