timestamp,emg1,emg2,emg3,emg4,emg5,emg6,emg7,emg8,timestamp_accelerometer,accelerometer-x,accelerometer-y,accelerometer-z,timestamp_gyro,gyro-x,gyro-y,gyro-z,timestamp_orientation,orientation-x,orientation-y,orientation-z,,orientation-w,roll,pitch,yaw
140734799966975,1,0,0,0,0,0,0,0,11699468834,-0.33252,0.231934,0.922852,11699468834,10,-3.625,4.5,11699468834,-0.0141602,0.218933,0.582764,0.78241,0.252339,0.367298,1.3274
11699469568,1,0,-2,-2,-1,-4,-2,-2,11699468834,-0.33252,0.231934,0.922852,11699468834,10,-3.625,4.5,11699468834,-0.0141602,0.218933,0.582764,0.78241,0.252339,0.367298,1.3274
11699469568,-4,0,1,4,-5,0,-1,2,11699468834,-0.33252,0.231934,0.922852,11699468834,10,-3.625,4.5,11699468834,-0.0141602,0.218933,0.582764,0.78241,0.252339,0.367298,1.3274
11699473823,0,-5,-2,-1,-1,-1,-1,-1,11699468834,-0.33252,0.231934,0.922852,11699468834,10,-3.625,4.5,11699468834,-0.0141602,0.218933,0.582764,0.78241,0.252339,0.367298,1.3274
11699473823,-8,-7,-3,-2,12,1,-3,-5,11699468834,-0.33252,0.231934,0.922852,11699468834,10,-3.625,4.5,11699468834,-0.0141602,0.218933,0.582764,0.78241,0.252339,0.367298,1.3274
11699474540,2,2,-2,1,-11,1,1,-3,11699468834,-0.33252,0.231934,0.922852,11699468834,10,-3.625,4.5,11699468834,-0.0141602,0.218933,0.582764,0.78241,0.252339,0.367298,1.3274
11699474540,5,13,2,3,4,0,1,1,11699468834,-0.33252,0.231934,0.922852,11699468834,10,-3.625,4.5,11699468834,-0.0141602,0.218933,0.582764,0.78241,0.252339,0.367298,1.3274
11699476137,0,2,-1,-5,-1,-6,-3,-2,11699468834,-0.33252,0.231934,0.922852,11699468834,10,-3.625,4.5,11699468834,-0.0141602,0.218933,0.582764,0.78241,0.252339,0.367298,1.3274
11699476137,0,0,0,-3,-1,0,-1,-2,11699468834,-0.33252,0.231934,0.922852,11699468834,10,-3.625,4.5,11699468834,-0.0141602,0.218933,0.582764,0.78241,0.252339,0.367298,1.3274
11699488287,-10,-9,-1,3,0,-1,-1,0,11699468834,-0.33252,0.231934,0.922852,11699468834,10,-3.625,4.5,11699468834,-0.0141602,0.218933,0.582764,0.78241,0.252339,0.367298,1.3274
11699488287,-1,-2,1,-7,-5,5,2,-2,11699489120,-0.354492,0.24707,0.918457,11699489120,8.6875,-2.4375,5.25,11699489120,-0.0123901,0.219482,0.583191,0.781921,0.256186,0.365791,1.32916
11699489927,-1,0,-2,2,0,-4,-3,0,11699489120,-0.354492,0.24707,0.918457,11699489120,8.6875,-2.4375,5.25,11699489120,-0.0123901,0.219482,0.583191,0.781921,0.256186,0.365791,1.32916
11699489927,-1,-3,-1,2,-2,4,1,0,11699489120,-0.354492,0.24707,0.918457,11699489120,8.6875,-2.4375,5.25,11699489120,-0.0123901,0.219482,0.583191,0.781921,0.256186,0.365791,1.32916
11699502809,-1,-1,-3,-3,3,-1,0,0,11699489120,-0.354492,0.24707,0.918457,11699489120,8.6875,-2.4375,5.25,11699489120,-0.0123901,0.219482,0.583191,0.781921,0.256186,0.365791,1.32916
11699502809,2,-3,-2,-3,-5,-9,-2,-2,11699503452,-0.356934,0.251953,0.925293,11699503452,1.6875,-0.125,5.5625,11699503452,-0.0117798,0.219604,0.583923,0.781372,0.257689,0.364993,1.33124
11699510829,-1,1,2,10,4,10,-1,-1,11699503452,-0.356934,0.251953,0.925293,11699503452,1.6875,-0.125,5.5625,11699503452,-0.0117798,0.219604,0.583923,0.781372,0.257689,0.364993,1.33124
11699510829,0,-1,3,-1,-4,-2,1,1,11699503452,-0.356934,0.251953,0.925293,11699503452,1.6875,-0.125,5.5625,11699503452,-0.0117798,0.219604,0.583923,0.781372,0.257689,0.364993,1.33124
11699517742,0,2,1,2,-4,-4,-4,1,11699503452,-0.356934,0.251953,0.925293,11699503452,1.6875,-0.125,5.5625,11699503452,-0.0117798,0.219604,0.583923,0.781372,0.257689,0.364993,1.33124
11699517742,-2,-5,-2,0,19,5,1,0,11699518622,-0.364746,0.239746,0.904785,11699518622,-0.625,-0.6875,5.125,11699518622,-0.0116577,0.219543,0.584656,0.780884,0.258141,0.364527,1.33313
11699541985,-3,-2,-1,-2,-16,-6,1,-1,11699518622,-0.364746,0.239746,0.904785,11699518622,-0.625,-0.6875,5.125,11699518622,-0.0116577,0.219543,0.584656,0.780884,0.258141,0.364527,1.33313
11699541985,1,2,-3,-1,8,5,-3,-1,11699518622,-0.364746,0.239746,0.904785,11699518622,-0.625,-0.6875,5.125,11699518622,-0.0116577,0.219543,0.584656,0.780884,0.258141,0.364527,1.33313
11699544091,2,-1,-2,-5,-1,-7,1,0,11699518622,-0.364746,0.239746,0.904785,11699518622,-0.625,-0.6875,5.125,11699518622,-0.0116577,0.219543,0.584656,0.780884,0.258141,0.364527,1.33313
11699544091,-2,0,-4,-1,2,0,-2,-3,11699544932,-0.356934,0.23877,0.90918,11699544932,-0.0625,-0.5625,3.6875,11699544932,-0.0114746,0.219421,0.585144,0.780518,0.258488,0.363934,1.33431
11699555532,0,0,-4,-5,-1,-1,0,1,11699544932,-0.356934,0.23877,0.90918,11699544932,-0.0625,-0.5625,3.6875,11699544932,-0.0114746,0.219421,0.585144,0.780518,0.258488,0.363934,1.33431
11699555532,2,2,3,3,-4,0,-2,-1,11699595278,-0.354004,0.256836,0.905762,11699595278,4,0.625,3.75,11699595278,-0.0101318,0.220459,0.585876,0.779724,0.262497,0.363627,1.33724
11699596102,-2,-1,-1,-2,1,-3,1,-1,11699595278,-0.354004,0.256836,0.905762,11699595278,4,0.625,3.75,11699595278,-0.0101318,0.220459,0.585876,0.779724,0.262497,0.363627,1.33724
11699596102,2,0,-1,-4,-1,-4,-3,-1,11699595278,-0.354004,0.256836,0.905762,11699595278,4,0.625,3.75,11699595278,-0.0101318,0.220459,0.585876,0.779724,0.262497,0.363627,1.33724
11699596920,-5,-2,-1,1,-1,1,0,-4,11699595278,-0.354004,0.256836,0.905762,11699595278,4,0.625,3.75,11699595278,-0.0101318,0.220459,0.585876,0.779724,0.262497,0.363627,1.33724
11699596920,-4,-1,-3,0,-3,0,0,1,11699595278,-0.354004,0.256836,0.905762,11699595278,4,0.625,3.75,11699595278,-0.0101318,0.220459,0.585876,0.779724,0.262497,0.363627,1.33724
11699600759,1,-1,-1,-3,1,-5,-3,-2,11699595278,-0.354004,0.256836,0.905762,11699595278,4,0.625,3.75,11699595278,-0.0101318,0.220459,0.585876,0.779724,0.262497,0.363627,1.33724
11699600759,0,-2,1,3,-1,5,1,-1,11699595278,-0.354004,0.256836,0.905762,11699595278,4,0.625,3.75,11699595278,-0.0101318,0.220459,0.585876,0.779724,0.262497,0.363627,1.33724
11699601514,-1,1,-3,-3,-7,3,1,1,11699595278,-0.354004,0.256836,0.905762,11699595278,4,0.625,3.75,11699595278,-0.0101318,0.220459,0.585876,0.779724,0.262497,0.363627,1.33724
11699601514,2,-3,-3,-3,4,-9,-3,-1,11699602295,-0.356934,0.253906,0.906738,11699602295,1.5625,1.3125,3.5625,11699602295,-0.00982666,0.220825,0.586304,0.779297,0.263722,0.363663,1.33869
11699606754,0,2,0,-1,0,0,-2,0,11699602295,-0.356934,0.253906,0.906738,11699602295,1.5625,1.3125,3.5625,11699602295,-0.00982666,0.220825,0.586304,0.779297,0.263722,0.363663,1.33869
11699606754,-4,-3,1,1,5,-3,1,0,11699602295,-0.356934,0.253906,0.906738,11699602295,1.5625,1.3125,3.5625,11699602295,-0.00982666,0.220825,0.586304,0.779297,0.263722,0.363663,1.33869
11699614255,1,0,-2,-2,-5,-5,-4,-3,11699602295,-0.356934,0.253906,0.906738,11699602295,1.5625,1.3125,3.5625,11699602295,-0.00982666,0.220825,0.586304,0.779297,0.263722,0.363663,1.33869
11699614255,2,-1,-2,-2,-9,6,-1,-2,11699621786,-0.358887,0.25,0.911621,11699621786,0.3125,1.0625,3.4375,11699621786,-0.00970459,0.221069,0.586792,0.77887,0.264505,0.363724,1.34018
11699629438,-2,-1,-3,2,2,-8,0,0,11699621786,-0.358887,0.25,0.911621,11699621786,0.3125,1.0625,3.4375,11699621786,-0.00970459,0.221069,0.586792,0.77887,0.264505,0.363724,1.34018
11699629438,-1,0,-1,0,5,2,0,0,11699621786,-0.358887,0.25,0.911621,11699621786,0.3125,1.0625,3.4375,11699621786,-0.00970459,0.221069,0.586792,0.77887,0.264505,0.363724,1.34018
11699636972,-1,-1,-1,-2,3,-3,-1,-1,11699621786,-0.358887,0.25,0.911621,11699621786,0.3125,1.0625,3.4375,11699621786,-0.00970459,0.221069,0.586792,0.77887,0.264505,0.363724,1.34018
11699636972,-1,-1,-2,-2,-2,3,0,-1,11699645084,-0.361816,0.249512,0.916016,11699645084,0.0625,0.875,2.1875,11699645084,-0.00970459,0.221191,0.587036,0.778625,0.2648,0.363817,1.34092
11699645740,-3,-2,-2,3,-8,3,-2,-2,11699645084,-0.361816,0.249512,0.916016,11699645084,0.0625,0.875,2.1875,11699645084,-0.00970459,0.221191,0.587036,0.778625,0.2648,0.363817,1.34092
11699645740,0,0,-1,-1,3,-3,-2,-3,11699645084,-0.361816,0.249512,0.916016,11699645084,0.0625,0.875,2.1875,11699645084,-0.00970459,0.221191,0.587036,0.778625,0.2648,0.363817,1.34092
11699668104,-1,-1,3,-1,1,-5,0,0,11699645084,-0.361816,0.249512,0.916016,11699645084,0.0625,0.875,2.1875,11699645084,-0.00970459,0.221191,0.587036,0.778625,0.2648,0.363817,1.34092
11699668104,-3,-2,-3,-3,-2,-2,-1,-3,11699668888,-0.367188,0.25,0.906738,11699668888,0.8125,0.8125,1.5625,11699668888,-0.00964355,0.221497,0.587219,0.778381,0.265431,0.364137,1.34165
11699669673,-2,-1,1,-1,-1,2,0,-2,11699668888,-0.367188,0.25,0.906738,11699668888,0.8125,0.8125,1.5625,11699668888,-0.00964355,0.221497,0.587219,0.778381,0.265431,0.364137,1.34165
11699669673,-1,-2,-3,-2,-1,-2,-2,-1,11699668888,-0.367188,0.25,0.906738,11699668888,0.8125,0.8125,1.5625,11699668888,-0.00964355,0.221497,0.587219,0.778381,0.265431,0.364137,1.34165
11699681760,-1,0,-2,0,-5,3,-3,-1,11699668888,-0.367188,0.25,0.906738,11699668888,0.8125,0.8125,1.5625,11699668888,-0.00964355,0.221497,0.587219,0.778381,0.265431,0.364137,1.34165
11699681760,0,1,3,2,1,-8,1,-2,11699689936,-0.361328,0.249512,0.914062,11699689936,0,0.9375,1.375,11699689936,-0.00964355,0.221619,0.587402,0.778198,0.265697,0.364258,1.34223
11699690736,1,-3,-1,-2,3,2,-1,-1,11699689936,-0.361328,0.249512,0.914062,11699689936,0,0.9375,1.375,11699689936,-0.00964355,0.221619,0.587402,0.778198,0.265697,0.364258,1.34223
11699690736,-1,0,-2,-2,-10,-1,0,-2,11699689936,-0.361328,0.249512,0.914062,11699689936,0,0.9375,1.375,11699689936,-0.00964355,0.221619,0.587402,0.778198,0.265697,0.364258,1.34223
11699705570,-1,-3,-1,1,-3,-3,-2,-1,11699689936,-0.361328,0.249512,0.914062,11699689936,0,0.9375,1.375,11699689936,-0.00964355,0.221619,0.587402,0.778198,0.265697,0.364258,1.34223
11699705570,1,0,1,0,0,-3,-5,0,11699706373,-0.352539,0.25,0.914551,11699706373,1.6875,0.9375,0.875,11699706373,-0.00939941,0.221863,0.587524,0.778076,0.266503,0.364302,1.34279
11699707156,0,0,-4,-2,2,-1,-1,-1,11699706373,-0.352539,0.25,0.914551,11699706373,1.6875,0.9375,0.875,11699706373,-0.00939941,0.221863,0.587524,0.778076,0.266503,0.364302,1.34279
11699707156,-2,1,-3,2,0,5,-1,-2,11699706373,-0.352539,0.25,0.914551,11699706373,1.6875,0.9375,0.875,11699706373,-0.00939941,0.221863,0.587524,0.778076,0.266503,0.364302,1.34279
11699728090,1,-1,-2,-2,3,-4,-2,0,11699706373,-0.352539,0.25,0.914551,11699706373,1.6875,0.9375,0.875,11699706373,-0.00939941,0.221863,0.587524,0.778076,0.266503,0.364302,1.34279
11699728090,1,-1,1,-2,2,5,-1,-2,11699728906,-0.342773,0.253906,0.905273,11699728906,1.75,0.9375,1.375,11699728906,-0.0090332,0.222107,0.587646,0.777893,0.267504,0.364163,1.34335
11699729693,-1,0,-1,-1,-6,-3,0,0,11699728906,-0.342773,0.253906,0.905273,11699728906,1.75,0.9375,1.375,11699728906,-0.0090332,0.222107,0.587646,0.777893,0.267504,0.364163,1.34335
11699729693,0,0,1,-1,3,0,0,-1,11699728906,-0.342773,0.253906,0.905273,11699728906,1.75,0.9375,1.375,11699728906,-0.0090332,0.222107,0.587646,0.777893,0.267504,0.364163,1.34335
11699741710,-1,-2,-1,1,9,-4,1,-2,11699728906,-0.342773,0.253906,0.905273,11699728906,1.75,0.9375,1.375,11699728906,-0.0090332,0.222107,0.587646,0.777893,0.267504,0.364163,1.34335
11699741710,-1,-2,-1,3,-4,2,0,1,11699749961,-0.362793,0.26123,0.921875,11699749961,-0.5,0.5625,0.9375,11699749961,-0.0090332,0.222107,0.587646,0.777893,0.267504,0.364163,1.34335
11699750705,0,-3,-2,-1,3,2,-2,-1,11699749961,-0.362793,0.26123,0.921875,11699749961,-0.5,0.5625,0.9375,11699749961,-0.0090332,0.222107,0.587646,0.777893,0.267504,0.364163,1.34335
11699750705,1,0,5,2,1,4,0,0,11699749961,-0.362793,0.26123,0.921875,11699749961,-0.5,0.5625,0.9375,11699749961,-0.0090332,0.222107,0.587646,0.777893,0.267504,0.364163,1.34335
11699765569,-2,-1,-2,-1,4,-6,0,-1,11699749961,-0.362793,0.26123,0.921875,11699749961,-0.5,0.5625,0.9375,11699749961,-0.0090332,0.222107,0.587646,0.777893,0.267504,0.364163,1.34335
11699765569,-2,3,0,1,-9,-2,-1,1,11699766383,-0.357422,0.259766,0.90625,11699766383,-1.875,-0.4375,1.4375,11699766383,-0.0090332,0.221924,0.587952,0.777771,0.267378,0.363806,1.344
11699767178,0,-4,-3,-1,1,2,-1,-1,11699766383,-0.357422,0.259766,0.90625,11699766383,-1.875,-0.4375,1.4375,11699766383,-0.0090332,0.221924,0.587952,0.777771,0.267378,0.363806,1.344
11699767178,0,-3,-3,-1,-5,-5,-2,1,11699766383,-0.357422,0.259766,0.90625,11699766383,-1.875,-0.4375,1.4375,11699766383,-0.0090332,0.221924,0.587952,0.777771,0.267378,0.363806,1.344
11699788105,1,-1,-1,-1,0,2,-1,-2,11699766383,-0.357422,0.259766,0.90625,11699766383,-1.875,-0.4375,1.4375,11699766383,-0.0090332,0.221924,0.587952,0.777771,0.267378,0.363806,1.344
11699788105,1,-3,-1,-2,5,-1,-2,0,11699788909,-0.332031,0.236816,0.897461,11699788909,-0.375,0.1875,2,11699788909,-0.00897217,0.22168,0.588318,0.777588,0.267289,0.363243,1.34477
11699789698,-5,2,1,-1,-3,-10,-2,-3,11699788909,-0.332031,0.236816,0.897461,11699788909,-0.375,0.1875,2,11699788909,-0.00897217,0.22168,0.588318,0.777588,0.267289,0.363243,1.34477
11699789698,-3,-3,-2,-4,-3,3,-2,0,11699788909,-0.332031,0.236816,0.897461,11699788909,-0.375,0.1875,2,11699788909,-0.00897217,0.22168,0.588318,0.777588,0.267289,0.363243,1.34477
11699801698,-1,0,-2,0,-5,0,-2,-1,11699788909,-0.332031,0.236816,0.897461,11699788909,-0.375,0.1875,2,11699788909,-0.00897217,0.22168,0.588318,0.777588,0.267289,0.363243,1.34477
11699801698,-2,-2,-3,0,8,4,0,-1,11699809968,-0.365723,0.233398,0.926758,11699809968,0.8125,-0.125,-0.3125,11699809968,-0.0090332,0.221619,0.588257,0.777588,0.267074,0.363218,1.34453
11699810740,0,-1,0,1,-1,0,0,0,11699809968,-0.365723,0.233398,0.926758,11699809968,0.8125,-0.125,-0.3125,11699809968,-0.0090332,0.221619,0.588257,0.777588,0.267074,0.363218,1.34453
11699810740,-1,0,-3,-4,0,-8,-2,-1,11699809968,-0.365723,0.233398,0.926758,11699809968,0.8125,-0.125,-0.3125,11699809968,-0.0090332,0.221619,0.588257,0.777588,0.267074,0.363218,1.34453
11699825582,-2,-2,1,1,-4,-1,0,-1,11699809968,-0.365723,0.233398,0.926758,11699809968,0.8125,-0.125,-0.3125,11699809968,-0.0090332,0.221619,0.588257,0.777588,0.267074,0.363218,1.34453
11699825582,-1,-1,-2,1,-3,-1,0,-2,11699826373,-0.376953,0.238281,0.911621,11699826373,4.375,-0.3125,0.5625,11699826373,-0.00860596,0.222107,0.588135,0.777527,0.268416,0.363461,1.34467
11699827177,-1,0,-1,1,4,3,2,0,11699826373,-0.376953,0.238281,0.911621,11699826373,4.375,-0.3125,0.5625,11699826373,-0.00860596,0.222107,0.588135,0.777527,0.268416,0.363461,1.34467
11699827177,-2,-1,-1,-3,-2,0,-1,1,11699826373,-0.376953,0.238281,0.911621,11699826373,4.375,-0.3125,0.5625,11699826373,-0.00860596,0.222107,0.588135,0.777527,0.268416,0.363461,1.34467
11699848136,0,0,0,2,0,0,-2,0,11699826373,-0.376953,0.238281,0.911621,11699826373,4.375,-0.3125,0.5625,11699826373,-0.00860596,0.222107,0.588135,0.777527,0.268416,0.363461,1.34467
11699848136,-2,1,-2,-3,-1,-6,-2,-2,11699848868,-0.359375,0.241211,0.900391,11699848868,4.0625,1.0625,1.625,11699848868,-0.00823975,0.222656,0.588196,0.777344,0.269836,0.363828,1.34534
11699849642,-3,-1,-4,-3,6,-2,-3,-3,11699848868,-0.359375,0.241211,0.900391,11699848868,4.0625,1.0625,1.625,11699848868,-0.00823975,0.222656,0.588196,0.777344,0.269836,0.363828,1.34534
11699849642,1,-1,2,5,-13,0,1,-3,11699848868,-0.359375,0.241211,0.900391,11699848868,4.0625,1.0625,1.625,11699848868,-0.00823975,0.222656,0.588196,0.777344,0.269836,0.363828,1.34534
11699861782,-2,1,1,-2,2,6,1,1,11699848868,-0.359375,0.241211,0.900391,11699848868,4.0625,1.0625,1.625,11699848868,-0.00823975,0.222656,0.588196,0.777344,0.269836,0.363828,1.34534
11699861782,-1,-1,0,-1,-8,-10,-2,-2,11699869749,-0.365723,0.241211,0.898926,11699869749,2.1875,0.9375,0.5,11699869749,-0.00811768,0.223022,0.588135,0.777283,0.270541,0.364253,1.3455
11699876766,-1,-3,-2,-2,3,9,0,-2,11699869749,-0.365723,0.241211,0.898926,11699869749,2.1875,0.9375,0.5,11699869749,-0.00811768,0.223022,0.588135,0.777283,0.270541,0.364253,1.3455
11699876766,0,-2,-4,-1,0,-3,-1,-2,11699869749,-0.365723,0.241211,0.898926,11699869749,2.1875,0.9375,0.5,11699869749,-0.00811768,0.223022,0.588135,0.777283,0.270541,0.364253,1.3455
11699885859,1,-1,-2,-1,-1,1,-1,0,11699869749,-0.365723,0.241211,0.898926,11699869749,2.1875,0.9375,0.5,11699869749,-0.00811768,0.223022,0.588135,0.777283,0.270541,0.364253,1.3455
11699885859,-1,-1,-1,-3,0,-1,1,-1,11699886428,-0.385254,0.261719,0.907715,11699886428,-0.3125,0.625,0.625,11699886428,-0.00817871,0.223145,0.588135,0.777283,0.270623,0.364533,1.3456
11699887217,-2,0,1,-1,-7,-4,0,0,11699886428,-0.385254,0.261719,0.907715,11699886428,-0.3125,0.625,0.625,11699886428,-0.00817871,0.223145,0.588135,0.777283,0.270623,0.364533,1.3456
11699887217,-1,1,0,0,2,-2,0,-1,11699886428,-0.385254,0.261719,0.907715,11699886428,-0.3125,0.625,0.625,11699886428,-0.00817871,0.223145,0.588135,0.777283,0.270623,0.364533,1.3456
11699908321,0,-2,-1,-2,-3,1,-1,-2,11699886428,-0.385254,0.261719,0.907715,11699886428,-0.3125,0.625,0.625,11699886428,-0.00817871,0.223145,0.588135,0.777283,0.270623,0.364533,1.3456
11699908321,1,-3,-4,-2,1,-1,-1,0,11699908943,-0.368652,0.255371,0.896484,11699908943,0.1875,0.75,0.6875,11699908943,-0.00817871,0.223145,0.588135,0.777283,0.270623,0.364533,1.3456
11699909759,1,-1,-4,0,-6,-1,-1,0,11699908943,-0.368652,0.255371,0.896484,11699908943,0.1875,0.75,0.6875,11699908943,-0.00817871,0.223145,0.588135,0.777283,0.270623,0.364533,1.3456
11699909759,-1,-1,0,-1,2,-1,0,-1,11699908943,-0.368652,0.255371,0.896484,11699908943,0.1875,0.75,0.6875,11699908943,-0.00817871,0.223145,0.588135,0.777283,0.270623,0.364533,1.3456
11699921915,-1,-1,1,0,0,1,-1,0,11699908943,-0.368652,0.255371,0.896484,11699908943,0.1875,0.75,0.6875,11699908943,-0.00817871,0.223145,0.588135,0.777283,0.270623,0.364533,1.3456
11699921915,-2,-2,-1,-1,-5,0,-2,-2,11699930008,-0.339844,0.241211,0.909668,11699930008,0.9375,1.3125,-0.25,11699930008,-0.00811768,0.223206,0.588074,0.777283,0.270782,0.364557,1.34549
11699930791,-1,1,0,3,7,-3,0,-1,11699930008,-0.339844,0.241211,0.909668,11699930008,0.9375,1.3125,-0.25,11699930008,-0.00811768,0.223206,0.588074,0.777283,0.270782,0.364557,1.34549
11699930791,0,2,0,-6,-12,-3,-3,-2,11699930008,-0.339844,0.241211,0.909668,11699930008,0.9375,1.3125,-0.25,11699930008,-0.00811768,0.223206,0.588074,0.777283,0.270782,0.364557,1.34549
11699945669,-2,-1,-3,-2,4,0,0,-1,11699930008,-0.339844,0.241211,0.909668,11699930008,0.9375,1.3125,-0.25,11699930008,-0.00811768,0.223206,0.588074,0.777283,0.270782,0.364557,1.34549
11699945669,-1,-1,0,-1,1,-7,-3,-3,11699946424,-0.361328,0.252441,0.918945,11699946424,2.6875,0.8125,-1.6875,11699946424,-0.00793457,0.223511,0.587769,0.777405,0.27138,0.364887,1.34497
11699947271,-1,0,0,-1,-3,5,-3,-2,11699946424,-0.361328,0.252441,0.918945,11699946424,2.6875,0.8125,-1.6875,11699946424,-0.00793457,0.223511,0.587769,0.777405,0.27138,0.364887,1.34497
11699947271,-1,1,-1,3,2,-8,-1,-2,11699946424,-0.361328,0.252441,0.918945,11699946424,2.6875,0.8125,-1.6875,11699946424,-0.00793457,0.223511,0.587769,0.777405,0.27138,0.364887,1.34497
11699968165,0,-3,-4,-2,-4,1,0,-1,11699946424,-0.361328,0.252441,0.918945,11699946424,2.6875,0.8125,-1.6875,11699946424,-0.00793457,0.223511,0.587769,0.777405,0.27138,0.364887,1.34497
11699968165,0,-1,-1,-3,6,2,1,1,11699968948,-0.364258,0.258789,0.908691,11699968948,2.25,-0.125,-1.125,11699968948,-0.00762939,0.223816,0.587524,0.777527,0.2722,0.365066,1.34463
11699969749,-1,-2,0,-4,-7,-6,-1,-2,11699968948,-0.364258,0.258789,0.908691,11699968948,2.25,-0.125,-1.125,11699968948,-0.00762939,0.223816,0.587524,0.777527,0.2722,0.365066,1.34463
11699969749,-3,-4,-2,-2,5,10,2,-1,11699968948,-0.364258,0.258789,0.908691,11699968948,2.25,-0.125,-1.125,11699968948,-0.00762939,0.223816,0.587524,0.777527,0.2722,0.365066,1.34463
11699981921,-1,1,2,0,-2,-9,-2,-2,11699968948,-0.364258,0.258789,0.908691,11699968948,2.25,-0.125,-1.125,11699968948,-0.00762939,0.223816,0.587524,0.777527,0.2722,0.365066,1.34463
11699981921,-1,1,0,-1,1,1,-2,-2,11699990166,-0.348145,0.255371,0.912109,11699990166,-0.6875,-0.1875,-0.75,11699990166,-0.00756836,0.223755,0.587524,0.777527,0.272208,0.364887,1.34458
11699990841,0,1,-3,-3,-5,-3,0,0,11699990166,-0.348145,0.255371,0.912109,11699990166,-0.6875,-0.1875,-0.75,11699990166,-0.00756836,0.223755,0.587524,0.777527,0.272208,0.364887,1.34458
11699990841,-1,-1,-4,0,1,0,0,-1,11699990166,-0.348145,0.255371,0.912109,11699990166,-0.6875,-0.1875,-0.75,11699990166,-0.00756836,0.223755,0.587524,0.777527,0.272208,0.364887,1.34458
11700005599,-2,-1,-1,-2,-2,0,1,-2,11699990166,-0.348145,0.255371,0.912109,11699990166,-0.6875,-0.1875,-0.75,11699990166,-0.00756836,0.223755,0.587524,0.777527,0.272208,0.364887,1.34458
11700005599,0,-1,4,1,5,-2,-2,-2,11700006442,-0.36084,0.250977,0.911621,11700006442,-1.5625,0.0625,-2.5,11700006442,-0.00793457,0.223633,0.58728,0.777771,0.271328,0.365258,1.34381
11700007231,2,0,1,0,-15,1,-1,-2,11700006442,-0.36084,0.250977,0.911621,11700006442,-1.5625,0.0625,-2.5,11700006442,-0.00793457,0.223633,0.58728,0.777771,0.271328,0.365258,1.34381
11700007231,-4,-2,-2,-6,2,-1,-3,-2,11700006442,-0.36084,0.250977,0.911621,11700006442,-1.5625,0.0625,-2.5,11700006442,-0.00793457,0.223633,0.58728,0.777771,0.271328,0.365258,1.34381
11700028254,-2,0,-2,-3,-9,-2,-1,0,11700006442,-0.36084,0.250977,0.911621,11700006442,-1.5625,0.0625,-2.5,11700006442,-0.00793457,0.223633,0.58728,0.777771,0.271328,0.365258,1.34381
11700028254,-1,1,-2,0,5,-1,-1,-1,11700028903,-0.355957,0.249512,0.917969,11700028903,-1.8125,0.4375,-2.375,11700028903,-0.00830078,0.223389,0.587036,0.778015,0.270268,0.365424,1.34292
11700029652,-1,-3,1,-1,-3,0,-2,-1,11700028903,-0.355957,0.249512,0.917969,11700028903,-1.8125,0.4375,-2.375,11700028903,-0.00830078,0.223389,0.587036,0.778015,0.270268,0.365424,1.34292
11700029652,-1,-2,1,-3,2,-7,-2,0,11700028903,-0.355957,0.249512,0.917969,11700028903,-1.8125,0.4375,-2.375,11700028903,-0.00830078,0.223389,0.587036,0.778015,0.270268,0.365424,1.34292
11700041961,-1,-3,-4,-2,-2,-1,0,-1,11700028903,-0.355957,0.249512,0.917969,11700028903,-1.8125,0.4375,-2.375,11700028903,-0.00830078,0.223389,0.587036,0.778015,0.270268,0.365424,1.34292
11700041961,-1,0,-3,-2,-1,5,0,-2,11700050153,-0.350586,0.251953,0.901855,11700050153,1.1875,0.5625,-1.4375,11700050153,-0.00817871,0.223511,0.586792,0.778137,0.270528,0.365528,1.34239
11700050851,-1,-1,-2,0,2,-3,-1,0,11700050153,-0.350586,0.251953,0.901855,11700050153,1.1875,0.5625,-1.4375,11700050153,-0.00817871,0.223511,0.586792,0.778137,0.270528,0.365528,1.34239
11700050851,0,0,-1,-2,-6,-1,-3,1,11700050153,-0.350586,0.251953,0.901855,11700050153,1.1875,0.5625,-1.4375,11700050153,-0.00817871,0.223511,0.586792,0.778137,0.270528,0.365528,1.34239
11700065802,-1,-3,3,1,1,-1,-1,-3,11700050153,-0.350586,0.251953,0.901855,11700050153,1.1875,0.5625,-1.4375,11700050153,-0.00817871,0.223511,0.586792,0.778137,0.270528,0.365528,1.34239
11700065802,-3,-2,-2,-4,-2,-3,-1,-1,11700066490,-0.365234,0.254395,0.90625,11700066490,0.3125,1.8125,-1,11700066490,-0.00836182,0.223877,0.58667,0.778137,0.270716,0.366366,1.34237
11700067246,0,0,0,-2,4,-1,-1,1,11700066490,-0.365234,0.254395,0.90625,11700066490,0.3125,1.8125,-1,11700066490,-0.00836182,0.223877,0.58667,0.778137,0.270716,0.366366,1.34237
11700067246,-2,-1,-2,0,2,-1,-1,-2,11700066490,-0.365234,0.254395,0.90625,11700066490,0.3125,1.8125,-1,11700066490,-0.00836182,0.223877,0.58667,0.778137,0.270716,0.366366,1.34237
11700088256,-2,-1,1,-2,-2,-2,-2,-1,11700066490,-0.365234,0.254395,0.90625,11700066490,0.3125,1.8125,-1,11700066490,-0.00836182,0.223877,0.58667,0.778137,0.270716,0.366366,1.34237
11700088256,-2,-4,0,-2,6,6,0,0,11700089014,-0.376953,0.244629,0.91748,11700089014,-0.5,2.8125,-0.0625,11700089014,-0.0088501,0.224243,0.58667,0.778076,0.270475,0.367561,1.34264
11700089721,-2,-1,0,0,-10,-6,0,-1,11700089014,-0.376953,0.244629,0.91748,11700089014,-0.5,2.8125,-0.0625,11700089014,-0.0088501,0.224243,0.58667,0.778076,0.270475,0.367561,1.34264
11700089721,1,2,-1,3,5,-2,1,2,11700089014,-0.376953,0.244629,0.91748,11700089014,-0.5,2.8125,-0.0625,11700089014,-0.0088501,0.224243,0.58667,0.778076,0.270475,0.367561,1.34264
11700110748,0,-1,-1,-2,-3,-4,-1,-1,11700089014,-0.376953,0.244629,0.91748,11700089014,-0.5,2.8125,-0.0625,11700089014,-0.0088501,0.224243,0.58667,0.778076,0.270475,0.367561,1.34264
11700110748,0,-1,-3,-1,-8,-4,0,0,11700111489,-0.374512,0.234375,0.914062,11700111489,-0.125,2.375,0.8125,11700111489,-0.00933838,0.224487,0.586731,0.777954,0.270085,0.368525,1.34295
11700112230,-3,-2,-3,-2,6,2,-2,-2,11700111489,-0.374512,0.234375,0.914062,11700111489,-0.125,2.375,0.8125,11700111489,-0.00933838,0.224487,0.586731,0.777954,0.270085,0.368525,1.34295
11700112230,1,-2,0,-2,1,1,-1,-1,11700111489,-0.374512,0.234375,0.914062,11700111489,-0.125,2.375,0.8125,11700111489,-0.00933838,0.224487,0.586731,0.777954,0.270085,0.368525,1.34295
11700125766,0,1,-1,5,3,-6,-1,0,11700111489,-0.374512,0.234375,0.914062,11700111489,-0.125,2.375,0.8125,11700111489,-0.00933838,0.224487,0.586731,0.777954,0.270085,0.368525,1.34295
11700125766,-2,0,1,2,-2,5,-1,0,11700126517,-0.361328,0.245117,0.901855,11700126517,1.4375,1.875,0.625,11700126517,-0.00933838,0.224854,0.586731,0.777832,0.270625,0.369077,1.34326
11700127265,-1,-1,0,0,0,-5,1,0,11700126517,-0.361328,0.245117,0.901855,11700126517,1.4375,1.875,0.625,11700126517,-0.00933838,0.224854,0.586731,0.777832,0.270625,0.369077,1.34326
11700127265,1,0,1,1,-2,-2,0,-1,11700126517,-0.361328,0.245117,0.901855,11700126517,1.4375,1.875,0.625,11700126517,-0.00933838,0.224854,0.586731,0.777832,0.270625,0.369077,1.34326
11700148067,1,-1,-3,-4,4,1,-2,0,11700126517,-0.361328,0.245117,0.901855,11700126517,1.4375,1.875,0.625,11700126517,-0.00933838,0.224854,0.586731,0.777832,0.270625,0.369077,1.34326
11700148067,-2,-1,2,-1,-5,-5,-2,0,11700148926,-0.356934,0.256348,0.905273,11700148926,2.9375,1.5625,0.5625,11700148926,-0.00897217,0.225342,0.586731,0.77771,0.27193,0.369372,1.34372
11700149722,1,-2,0,0,2,-1,-4,-3,11700148926,-0.356934,0.256348,0.905273,11700148926,2.9375,1.5625,0.5625,11700148926,-0.00897217,0.225342,0.586731,0.77771,0.27193,0.369372,1.34372
11700149722,0,-2,-3,-2,-1,-1,0,0,11700148926,-0.356934,0.256348,0.905273,11700148926,2.9375,1.5625,0.5625,11700148926,-0.00897217,0.225342,0.586731,0.77771,0.27193,0.369372,1.34372
11700170797,-1,0,-1,-1,1,1,-1,-1,11700148926,-0.356934,0.256348,0.905273,11700148926,2.9375,1.5625,0.5625,11700148926,-0.00897217,0.225342,0.586731,0.77771,0.27193,0.369372,1.34372
11700170797,-1,0,-2,0,-2,-3,0,0,11700171501,-0.36084,0.249512,0.911621,11700171501,1.875,1.5625,0.4375,11700171501,-0.0088501,0.225647,0.586731,0.777588,0.272577,0.369668,1.34398
11700172216,0,0,-4,-2,1,1,-2,0,11700171501,-0.36084,0.249512,0.911621,11700171501,1.875,1.5625,0.4375,11700171501,-0.0088501,0.225647,0.586731,0.777588,0.272577,0.369668,1.34398
11700172216,-2,-1,-2,-2,-6,-7,-1,-2,11700171501,-0.36084,0.249512,0.911621,11700171501,1.875,1.5625,0.4375,11700171501,-0.0088501,0.225647,0.586731,0.777588,0.272577,0.369668,1.34398
11700185813,-1,-1,1,0,10,4,-1,-1,11700171501,-0.36084,0.249512,0.911621,11700171501,1.875,1.5625,0.4375,11700171501,-0.0088501,0.225647,0.586731,0.777588,0.272577,0.369668,1.34398
11700185813,2,-3,-1,0,-13,-7,-2,-2,11700186498,-0.370605,0.246094,0.905762,11700186498,1.9375,1.25,0.875,11700186498,-0.00878906,0.226013,0.586731,0.777466,0.273216,0.370143,1.3443
11700187254,-1,-3,1,1,2,3,1,0,11700186498,-0.370605,0.246094,0.905762,11700186498,1.9375,1.25,0.875,11700186498,-0.00878906,0.226013,0.586731,0.777466,0.273216,0.370143,1.3443
11700187254,0,0,-1,1,0,-2,-1,0,11700186498,-0.370605,0.246094,0.905762,11700186498,1.9375,1.25,0.875,11700186498,-0.00878906,0.226013,0.586731,0.777466,0.273216,0.370143,1.3443
11700208280,1,-2,-1,0,-1,0,0,0,11700186498,-0.370605,0.246094,0.905762,11700186498,1.9375,1.25,0.875,11700186498,-0.00878906,0.226013,0.586731,0.777466,0.273216,0.370143,1.3443
11700208280,-2,1,-2,-3,4,-1,-2,0,11700208973,-0.375488,0.255859,0.900879,11700208973,1.625,1.375,0.5,11700208973,-0.00872803,0.226501,0.586731,0.777344,0.274035,0.370821,1.34473
11700209770,-1,0,-2,-1,-6,-5,-1,-1,11700208973,-0.375488,0.255859,0.900879,11700208973,1.625,1.375,0.5,11700208973,-0.00872803,0.226501,0.586731,0.777344,0.274035,0.370821,1.34473
11700209770,-2,-1,0,0,1,5,3,0,11700208973,-0.375488,0.255859,0.900879,11700208973,1.625,1.375,0.5,11700208973,-0.00872803,0.226501,0.586731,0.777344,0.274035,0.370821,1.34473
11700230632,-1,0,0,-5,-6,2,-1,-1,11700208973,-0.375488,0.255859,0.900879,11700208973,1.625,1.375,0.5,11700208973,-0.00872803,0.226501,0.586731,0.777344,0.274035,0.370821,1.34473
11700230632,-3,-3,-6,-4,-2,-1,0,1,11700231381,-0.371582,0.250488,0.905762,11700231381,1.75,1,-0.0625,11700231381,-0.00872803,0.226807,0.586609,0.777344,0.274429,0.371328,1.34468
11700232209,-1,-1,0,-1,-7,-8,-2,1,11700231381,-0.371582,0.250488,0.905762,11700231381,1.75,1,-0.0625,11700231381,-0.00872803,0.226807,0.586609,0.777344,0.274429,0.371328,1.34468
11700232209,-2,-3,-1,-3,1,3,-5,-2,11700231381,-0.371582,0.250488,0.905762,11700231381,1.75,1,-0.0625,11700231381,-0.00872803,0.226807,0.586609,0.777344,0.274429,0.371328,1.34468
11700245003,-1,2,2,0,-10,4,1,-1,11700231381,-0.371582,0.250488,0.905762,11700231381,1.75,1,-0.0625,11700231381,-0.00872803,0.226807,0.586609,0.777344,0.274429,0.371328,1.34468
11700245003,1,-1,1,-1,1,-2,-1,-2,11700245743,-0.374023,0.256836,0.899902,11700245743,2.125,0.5,-0.125,11700245743,-0.00848389,0.227234,0.586487,0.777344,0.275392,0.371731,1.34476
11700259478,-1,-1,-5,-3,3,-1,-1,-1,11700245743,-0.374023,0.256836,0.899902,11700245743,2.125,0.5,-0.125,11700245743,-0.00848389,0.227234,0.586487,0.777344,0.275392,0.371731,1.34476
11700259478,-2,0,-3,-3,3,-2,-1,0,11700245743,-0.374023,0.256836,0.899902,11700245743,2.125,0.5,-0.125,11700245743,-0.00848389,0.227234,0.586487,0.777344,0.275392,0.371731,1.34476
11700268264,-2,-1,-2,2,-9,-1,0,2,11700245743,-0.374023,0.256836,0.899902,11700245743,2.125,0.5,-0.125,11700245743,-0.00848389,0.227234,0.586487,0.777344,0.275392,0.371731,1.34476
11700268264,-3,-2,0,0,3,-8,0,-3,11700268977,-0.375488,0.261719,0.895996,11700268977,0.1875,0.4375,-1.1875,11700268977,-0.00854492,0.227478,0.586304,0.777405,0.275568,0.372242,1.34449
11700269779,1,1,2,1,5,4,0,-1,11700268977,-0.375488,0.261719,0.895996,11700268977,0.1875,0.4375,-1.1875,11700268977,-0.00854492,0.227478,0.586304,0.777405,0.275568,0.372242,1.34449
11700269779,0,-2,-1,2,2,-2,-2,-2,11700268977,-0.375488,0.261719,0.895996,11700268977,0.1875,0.4375,-1.1875,11700268977,-0.00854492,0.227478,0.586304,0.777405,0.275568,0.372242,1.34449
11700290807,-1,-3,-3,-2,5,0,-4,-1,11700268977,-0.375488,0.261719,0.895996,11700268977,0.1875,0.4375,-1.1875,11700268977,-0.00854492,0.227478,0.586304,0.777405,0.275568,0.372242,1.34449
11700290807,1,0,-2,0,-2,0,-2,-1,11700291536,-0.378418,0.260742,0.901855,11700291536,-1.125,0.4375,-2.375,11700291536,-0.00891113,0.227539,0.585999,0.777588,0.274926,0.372889,1.34369
11700292248,-2,-1,-2,-4,-2,-4,0,-1,11700291536,-0.378418,0.260742,0.901855,11700291536,-1.125,0.4375,-2.375,11700291536,-0.00891113,0.227539,0.585999,0.777588,0.274926,0.372889,1.34369
11700292248,-2,-1,-1,-2,-2,0,0,-1,11700291536,-0.378418,0.260742,0.901855,11700291536,-1.125,0.4375,-2.375,11700291536,-0.00891113,0.227539,0.585999,0.777588,0.274926,0.372889,1.34369
11700304995,-1,-1,-2,-2,1,-1,-2,-2,11700291536,-0.378418,0.260742,0.901855,11700291536,-1.125,0.4375,-2.375,11700291536,-0.00891113,0.227539,0.585999,0.777588,0.274926,0.372889,1.34369
11700304995,-1,-1,3,1,-1,3,1,-1,11700305775,-0.374023,0.25,0.905762,11700305775,-0.4375,0.375,-2.5,11700305775,-0.00915527,0.2276,0.585693,0.777832,0.274479,0.373411,1.34293
11700311735,-1,-3,-2,-2,1,-2,-2,0,11700305775,-0.374023,0.25,0.905762,11700305775,-0.4375,0.375,-2.5,11700305775,-0.00915527,0.2276,0.585693,0.777832,0.274479,0.373411,1.34293
11700311735,0,-1,-2,1,-3,0,-1,0,11700305775,-0.374023,0.25,0.905762,11700305775,-0.4375,0.375,-2.5,11700305775,-0.00915527,0.2276,0.585693,0.777832,0.274479,0.373411,1.34293
11700328085,1,2,-1,-4,-1,-5,1,-2,11700305775,-0.374023,0.25,0.905762,11700305775,-0.4375,0.375,-2.5,11700305775,-0.00915527,0.2276,0.585693,0.777832,0.274479,0.373411,1.34293
11700328085,-1,-1,0,1,1,0,-1,1,11700328887,-0.372559,0.25293,0.905273,11700328887,-0.1875,-0.125,-3,11700328887,-0.00933838,0.227539,0.585266,0.778137,0.273889,0.37368,1.34173
11700329697,-1,-2,-2,-2,-2,1,0,-2,11700328887,-0.372559,0.25293,0.905273,11700328887,-0.1875,-0.125,-3,11700328887,-0.00933838,0.227539,0.585266,0.778137,0.273889,0.37368,1.34173
11700329697,1,-3,-1,-2,-1,1,-1,-2,11700328887,-0.372559,0.25293,0.905273,11700328887,-0.1875,-0.125,-3,11700328887,-0.00933838,0.227539,0.585266,0.778137,0.273889,0.37368,1.34173
11700350588,-2,-4,-3,0,0,-7,-4,-2,11700328887,-0.372559,0.25293,0.905273,11700328887,-0.1875,-0.125,-3,11700328887,-0.00933838,0.227539,0.585266,0.778137,0.273889,0.37368,1.34173
11700350588,-1,-2,-1,1,-1,3,-1,-1,11700351416,-0.357422,0.262695,0.906738,11700351416,0.25,-1.0625,-3.625,11700351416,-0.00915527,0.227356,0.584839,0.778503,0.273704,0.373314,1.34047
11700352214,-2,0,-1,-1,-1,-2,0,-2,11700351416,-0.357422,0.262695,0.906738,11700351416,0.25,-1.0625,-3.625,11700351416,-0.00915527,0.227356,0.584839,0.778503,0.273704,0.373314,1.34047
11700352214,0,-2,-3,-2,-4,-4,0,-3,11700351416,-0.357422,0.262695,0.906738,11700351416,0.25,-1.0625,-3.625,11700351416,-0.00915527,0.227356,0.584839,0.778503,0.273704,0.373314,1.34047
11700364976,-2,-1,-1,-3,1,1,1,-1,11700351416,-0.357422,0.262695,0.906738,11700351416,0.25,-1.0625,-3.625,11700351416,-0.00915527,0.227356,0.584839,0.778503,0.273704,0.373314,1.34047
11700364976,1,0,-1,1,2,-1,-2,0,11700365746,-0.351562,0.267578,0.897461,11700365746,2.1875,-2,-4.4375,11700365746,-0.00860596,0.227295,0.584167,0.779053,0.274167,0.372778,1.33874
11700371731,0,-1,0,2,-3,-1,-4,1,11700365746,-0.351562,0.267578,0.897461,11700365746,2.1875,-2,-4.4375,11700365746,-0.00860596,0.227295,0.584167,0.779053,0.274167,0.372778,1.33874
11700371731,0,0,1,0,-3,-1,-2,1,11700365746,-0.351562,0.267578,0.897461,11700365746,2.1875,-2,-4.4375,11700365746,-0.00860596,0.227295,0.584167,0.779053,0.274167,0.372778,1.33874
11700388134,-1,-1,0,-1,1,-1,0,-2,11700365746,-0.351562,0.267578,0.897461,11700365746,2.1875,-2,-4.4375,11700365746,-0.00860596,0.227295,0.584167,0.779053,0.274167,0.372778,1.33874
11700388134,-2,-4,-2,-4,-1,-3,1,-1,11700388906,-0.361328,0.258789,0.898926,11700388906,2.5625,-2.8125,-5.6875,11700388906,-0.00811768,0.227173,0.583313,0.779724,0.274356,0.372274,1.33646
11700389714,0,-2,1,-4,0,-1,0,-1,11700388906,-0.361328,0.258789,0.898926,11700388906,2.5625,-2.8125,-5.6875,11700388906,-0.00811768,0.227173,0.583313,0.779724,0.274356,0.372274,1.33646
11700389714,-2,0,-1,-4,1,0,-2,-2,11700388906,-0.361328,0.258789,0.898926,11700388906,2.5625,-2.8125,-5.6875,11700388906,-0.00811768,0.227173,0.583313,0.779724,0.274356,0.372274,1.33646
11700410581,0,-3,-2,0,-2,1,0,-1,11700388906,-0.361328,0.258789,0.898926,11700388906,2.5625,-2.8125,-5.6875,11700388906,-0.00811768,0.227173,0.583313,0.779724,0.274356,0.372274,1.33646
11700410581,-1,1,1,1,-5,-6,-2,-1,11700411374,-0.374512,0.260254,0.897461,11700411374,1.625,-3.0625,-4.9375,11700411374,-0.00775146,0.227112,0.582581,0.780334,0.2745,0.371999,1.33455
11700412192,0,0,0,3,2,3,-1,0,11700411374,-0.374512,0.260254,0.897461,11700411374,1.625,-3.0625,-4.9375,11700411374,-0.00775146,0.227112,0.582581,0.780334,0.2745,0.371999,1.33455
11700412192,-1,-1,0,0,1,-3,-1,-3,11700411374,-0.374512,0.260254,0.897461,11700411374,1.625,-3.0625,-4.9375,11700411374,-0.00775146,0.227112,0.582581,0.780334,0.2745,0.371999,1.33455
11700424910,-1,-2,-2,-2,2,-2,-1,0,11700411374,-0.374512,0.260254,0.897461,11700411374,1.625,-3.0625,-4.9375,11700411374,-0.00775146,0.227112,0.582581,0.780334,0.2745,0.371999,1.33455
11700424910,-1,1,-3,-1,-2,3,-1,-2,11700425701,-0.378418,0.254883,0.904785,11700425701,0,-3.0625,-4.4375,11700425701,-0.00769043,0.226746,0.58197,0.780884,0.273766,0.371566,1.33265
11700431751,0,1,0,0,0,-3,0,-1,11700425701,-0.378418,0.254883,0.904785,11700425701,0,-3.0625,-4.4375,11700425701,-0.00769043,0.226746,0.58197,0.780884,0.273766,0.371566,1.33265
11700431751,-2,-3,1,0,0,2,1,-2,11700425701,-0.378418,0.254883,0.904785,11700425701,0,-3.0625,-4.4375,11700425701,-0.00769043,0.226746,0.58197,0.780884,0.273766,0.371566,1.33265
11700448048,0,0,-1,-1,-1,-4,-1,-1,11700425701,-0.378418,0.254883,0.904785,11700425701,0,-3.0625,-4.4375,11700425701,-0.00769043,0.226746,0.58197,0.780884,0.273766,0.371566,1.33265
11700448048,0,-1,-1,-2,-4,-1,0,-3,11700448849,-0.367676,0.23584,0.915039,11700448849,-0.1875,-2.8125,-3.6875,11700448849,-0.00775146,0.226196,0.581421,0.781372,0.272598,0.37095,1.33072
11700449681,-1,0,0,-1,-1,-2,0,1,11700448849,-0.367676,0.23584,0.915039,11700448849,-0.1875,-2.8125,-3.6875,11700448849,-0.00775146,0.226196,0.581421,0.781372,0.272598,0.37095,1.33072
11700449681,-1,1,-2,0,2,-4,-1,-1,11700448849,-0.367676,0.23584,0.915039,11700448849,-0.1875,-2.8125,-3.6875,11700448849,-0.00775146,0.226196,0.581421,0.781372,0.272598,0.37095,1.33072
11700470817,-2,-3,0,-1,0,-3,-3,0,11700448849,-0.367676,0.23584,0.915039,11700448849,-0.1875,-2.8125,-3.6875,11700448849,-0.00775146,0.226196,0.581421,0.781372,0.272598,0.37095,1.33072
11700470817,0,-1,-4,-1,1,2,-1,-2,11700471423,-0.356934,0.236328,0.919434,11700471423,1.125,-2.125,-2.4375,11700471423,-0.00756836,0.225769,0.581116,0.781799,0.272119,0.370207,1.3296
11700472219,0,0,0,-1,-1,-2,-2,-4,11700471423,-0.356934,0.236328,0.919434,11700471423,1.125,-2.125,-2.4375,11700471423,-0.00756836,0.225769,0.581116,0.781799,0.272119,0.370207,1.3296
11700472219,0,3,-1,0,-3,-3,-2,6,11700471423,-0.356934,0.236328,0.919434,11700471423,1.125,-2.125,-2.4375,11700471423,-0.00756836,0.225769,0.581116,0.781799,0.272119,0.370207,1.3296
11700485093,0,-3,-2,-4,0,1,-1,0,11700471423,-0.356934,0.236328,0.919434,11700471423,1.125,-2.125,-2.4375,11700471423,-0.00756836,0.225769,0.581116,0.781799,0.272119,0.370207,1.3296
11700485093,-2,0,0,-2,1,4,2,2,11700485853,-0.352539,0.249512,0.919434,11700485853,1,-0.0625,0.3125,11700485853,-0.00738525,0.225708,0.581116,0.781799,0.272324,0.369876,1.32957
11700491796,-3,0,-1,-2,-2,0,-2,-2,11700485853,-0.352539,0.249512,0.919434,11700485853,1,-0.0625,0.3125,11700485853,-0.00738525,0.225708,0.581116,0.781799,0.272324,0.369876,1.32957
11700491796,0,0,-1,2,0,-1,-2,-3,11700485853,-0.352539,0.249512,0.919434,11700485853,1,-0.0625,0.3125,11700485853,-0.00738525,0.225708,0.581116,0.781799,0.272324,0.369876,1.32957
11700508293,1,0,0,0,-1,1,-2,-7,11700485853,-0.352539,0.249512,0.919434,11700485853,1,-0.0625,0.3125,11700485853,-0.00738525,0.225708,0.581116,0.781799,0.272324,0.369876,1.32957
11700508293,1,-2,-3,-3,-5,-3,-3,6,11700508976,-0.353027,0.25,0.920898,11700508976,-0.25,1.8125,2.25,11700508976,-0.00744629,0.225708,0.581482,0.781494,0.272401,0.36981,1.3305
11700509733,-2,1,1,-2,1,-3,-2,-19,11700508976,-0.353027,0.25,0.920898,11700508976,-0.25,1.8125,2.25,11700508976,-0.00744629,0.225708,0.581482,0.781494,0.272401,0.36981,1.3305
11700509733,-2,-3,0,-1,-3,0,0,-3,11700508976,-0.353027,0.25,0.920898,11700508976,-0.25,1.8125,2.25,11700508976,-0.00744629,0.225708,0.581482,0.781494,0.272401,0.36981,1.3305
11700530667,25,4,-1,0,2,3,0,8,11700508976,-0.353027,0.25,0.920898,11700508976,-0.25,1.8125,2.25,11700508976,-0.00744629,0.225708,0.581482,0.781494,0.272401,0.36981,1.3305
11700530667,-25,-6,-1,-2,1,-2,1,10,11700531470,-0.364258,0.233398,0.921875,11700531470,-2,2.5625,3.0625,11700531470,-0.00799561,0.225647,0.58197,0.781189,0.271662,0.370254,1.33167
11700532254,-13,-6,-4,-5,-4,-5,0,-8,11700531470,-0.364258,0.233398,0.921875,11700531470,-2,2.5625,3.0625,11700531470,-0.00799561,0.225647,0.58197,0.781189,0.271662,0.370254,1.33167
11700532254,-6,0,-2,-1,-1,-3,-1,7,11700531470,-0.364258,0.233398,0.921875,11700531470,-2,2.5625,3.0625,11700531470,-0.00799561,0.225647,0.58197,0.781189,0.271662,0.370254,1.33167
11700545162,6,0,-1,0,-2,-3,-5,-8,11700531470,-0.364258,0.233398,0.921875,11700531470,-2,2.5625,3.0625,11700531470,-0.00799561,0.225647,0.58197,0.781189,0.271662,0.370254,1.33167
11700545162,3,2,0,-3,1,0,-2,-23,11700545804,-0.374512,0.209473,0.9375,11700545804,-0.0625,1.8125,2.3125,11700545804,-0.00854492,0.225525,0.582275,0.781006,0.270747,0.370652,1.3323
11700551935,6,-1,-1,2,1,6,3,28,11700545804,-0.374512,0.209473,0.9375,11700545804,-0.0625,1.8125,2.3125,11700545804,-0.00854492,0.225525,0.582275,0.781006,0.270747,0.370652,1.3323
11700551935,-2,-2,-4,-6,-5,-19,-5,-12,11700545804,-0.374512,0.209473,0.9375,11700545804,-0.0625,1.8125,2.3125,11700545804,-0.00854492,0.225525,0.582275,0.781006,0.270747,0.370652,1.3323
11700575645,-13,-2,0,1,1,5,0,4,11700545804,-0.374512,0.209473,0.9375,11700545804,-0.0625,1.8125,2.3125,11700545804,-0.00854492,0.225525,0.582275,0.781006,0.270747,0.370652,1.3323
11700575645,5,2,0,3,0,-1,-1,2,11700576422,-0.377441,0.19873,0.925781,11700576422,9.3125,0.5,2.875,11700576422,-0.0078125,0.226196,0.582214,0.780823,0.27288,0.370772,1.33279
11700577190,-6,1,0,-2,2,2,-2,-6,11700576422,-0.377441,0.19873,0.925781,11700576422,9.3125,0.5,2.875,11700576422,-0.0078125,0.226196,0.582214,0.780823,0.27288,0.370772,1.33279
11700577190,7,1,-1,-1,-2,2,2,1,11700576422,-0.377441,0.19873,0.925781,11700576422,9.3125,0.5,2.875,11700576422,-0.0078125,0.226196,0.582214,0.780823,0.27288,0.370772,1.33279
11700590691,-4,1,-1,1,-2,-4,-2,1,11700576422,-0.377441,0.19873,0.925781,11700576422,9.3125,0.5,2.875,11700576422,-0.0078125,0.226196,0.582214,0.780823,0.27288,0.370772,1.33279
11700590691,-1,0,-2,-2,-1,0,0,-3,11700591478,-0.365234,0.265137,0.888672,11700591478,16.9375,-0.5625,0.8125,11700591478,-0.00537109,0.227966,0.581665,0.780762,0.279137,0.370652,1.33317
11700592214,4,1,-2,1,-4,1,1,5,11700591478,-0.365234,0.265137,0.888672,11700591478,16.9375,-0.5625,0.8125,11700591478,-0.00537109,0.227966,0.581665,0.780762,0.279137,0.370652,1.33317
11700592214,1,0,0,-2,0,4,-3,-14,11700591478,-0.365234,0.265137,0.888672,11700591478,16.9375,-0.5625,0.8125,11700591478,-0.00537109,0.227966,0.581665,0.780762,0.279137,0.370652,1.33317
11700613290,-10,-3,0,-2,-4,-2,-1,18,11700591478,-0.365234,0.265137,0.888672,11700591478,16.9375,-0.5625,0.8125,11700591478,-0.00537109,0.227966,0.581665,0.780762,0.279137,0.370652,1.33317
11700613290,1,-1,0,0,2,3,-1,-1,11700614009,-0.364258,0.340332,0.860352,11700614009,15.25,-0.125,-0.625,11700614009,-0.00256348,0.230225,0.580994,0.780579,0.286649,0.370837,1.3337
11700614756,1,0,-1,-3,0,-3,-5,-19,11700614009,-0.364258,0.340332,0.860352,11700614009,15.25,-0.125,-0.625,11700614009,-0.00256348,0.230225,0.580994,0.780579,0.286649,0.370837,1.3337
11700614756,-4,-3,-1,-2,-3,-1,1,13,11700614009,-0.364258,0.340332,0.860352,11700614009,15.25,-0.125,-0.625,11700614009,-0.00256348,0.230225,0.580994,0.780579,0.286649,0.370837,1.3337
11700635730,-4,-1,0,0,1,0,0,-14,11700614009,-0.364258,0.340332,0.860352,11700614009,15.25,-0.125,-0.625,11700614009,-0.00256348,0.230225,0.580994,0.780579,0.286649,0.370837,1.3337
11700635730,13,-2,-1,-2,-5,-5,-4,7,11700636500,-0.359863,0.354004,0.879883,11700636500,0.625,1.25,1.25,11700636500,-0.00170898,0.231079,0.581238,0.780151,0.289399,0.370992,1.33519
11700637212,-7,-3,-3,2,1,2,1,7,11700636500,-0.359863,0.354004,0.879883,11700636500,0.625,1.25,1.25,11700636500,-0.00170898,0.231079,0.581238,0.780151,0.289399,0.370992,1.33519
11700637212,-1,0,0,-2,2,8,-4,-34,11700636500,-0.359863,0.354004,0.879883,11700636500,0.625,1.25,1.25,11700636500,-0.00170898,0.231079,0.581238,0.780151,0.289399,0.370992,1.33519
11700650732,-3,2,0,-3,-7,-7,-1,-4,11700636500,-0.359863,0.354004,0.879883,11700636500,0.625,1.25,1.25,11700636500,-0.00170898,0.231079,0.581238,0.780151,0.289399,0.370992,1.33519
11700650732,-2,0,-2,0,2,-8,-4,7,11700651499,-0.38916,0.308594,0.910156,11700651499,-16.8125,1.6875,3.4375,11700651499,-0.00378418,0.230042,0.582397,0.779602,0.285094,0.371581,1.33706
11700652280,4,2,-1,0,0,0,1,-1,11700651499,-0.38916,0.308594,0.910156,11700651499,-16.8125,1.6875,3.4375,11700651499,-0.00378418,0.230042,0.582397,0.779602,0.285094,0.371581,1.33706
11700652280,-1,-4,0,2,0,2,1,7,11700651499,-0.38916,0.308594,0.910156,11700651499,-16.8125,1.6875,3.4375,11700651499,-0.00378418,0.230042,0.582397,0.779602,0.285094,0.371581,1.33706
11700673248,-2,-2,-2,-3,3,1,3,5,11700651499,-0.38916,0.308594,0.910156,11700651499,-16.8125,1.6875,3.4375,11700651499,-0.00378418,0.230042,0.582397,0.779602,0.285094,0.371581,1.33706
11700673248,-1,-2,-2,-3,-2,2,1,-10,11700674000,-0.404297,0.24707,0.912598,11700674000,-24.6875,-8.875,-0.125,11700674000,-0.0065918,0.226562,0.583252,0.779968,0.275872,0.369461,1.33595
11700674786,-3,-2,1,4,-8,-7,-4,2,11700674000,-0.404297,0.24707,0.912598,11700674000,-24.6875,-8.875,-0.125,11700674000,-0.0065918,0.226562,0.583252,0.779968,0.275872,0.369461,1.33595
11700674786,-2,1,1,2,2,-1,-2,2,11700674000,-0.404297,0.24707,0.912598,11700674000,-24.6875,-8.875,-0.125,11700674000,-0.0065918,0.226562,0.583252,0.779968,0.275872,0.369461,1.33595
11700695840,-1,-4,-3,-1,0,1,0,-4,11700674000,-0.404297,0.24707,0.912598,11700674000,-24.6875,-8.875,-0.125,11700674000,-0.0065918,0.226562,0.583252,0.779968,0.275872,0.369461,1.33595
11700695840,-1,-2,-4,-13,1,2,11,3,11700696488,-0.352051,0.195312,0.888184,11700696488,-18.1875,-9.875,-2.5625,11700696488,-0.00860596,0.223022,0.583557,0.780701,0.267594,0.366416,1.3335
11700697335,-1,-1,-3,6,15,-2,1,2,11700696488,-0.352051,0.195312,0.888184,11700696488,-18.1875,-9.875,-2.5625,11700696488,-0.00860596,0.223022,0.583557,0.780701,0.267594,0.366416,1.3335
11700697335,2,2,14,36,-37,-6,-14,2,11700701818,-0.356934,0.200195,0.869141,11700701818,-6.875,-10.8125,-1.1875,11700701818,-0.00891113,0.220764,0.583618,0.781311,0.263836,0.363312,1.33174
11700709500,-3,0,-3,-6,3,-15,-23,-13,11700701818,-0.356934,0.200195,0.869141,11700701818,-6.875,-10.8125,-1.1875,11700701818,-0.00891113,0.220764,0.583618,0.781311,0.263836,0.363312,1.33174
11700709500,-3,-2,-3,-5,1,2,5,-7,11700701818,-0.356934,0.200195,0.869141,11700701818,-6.875,-10.8125,-1.1875,11700701818,-0.00891113,0.220764,0.583618,0.781311,0.263836,0.363312,1.33174
11700716895,1,1,-3,-16,2,6,-3,4,11700701818,-0.356934,0.200195,0.869141,11700701818,-6.875,-10.8125,-1.1875,11700701818,-0.00891113,0.220764,0.583618,0.781311,0.263836,0.363312,1.33174
11700716895,0,-3,-9,-16,22,6,16,7,11700724396,-0.349121,0.331543,0.858887,11700724396,11.6875,-13.125,-4.875,11700724396,-0.00537109,0.220886,0.582581,0.782104,0.269208,0.359462,1.32956
11700732597,1,0,3,33,-13,-3,-6,-1,11700724396,-0.349121,0.331543,0.858887,11700724396,11.6875,-13.125,-4.875,11700724396,-0.00537109,0.220886,0.582581,0.782104,0.269208,0.359462,1.32956
11700732597,-4,-3,-3,-14,-4,-15,0,0,11700724396,-0.349121,0.331543,0.858887,11700724396,11.6875,-13.125,-4.875,11700724396,-0.00537109,0.220886,0.582581,0.782104,0.269208,0.359462,1.32956
11700733222,3,3,-1,0,3,4,-9,-7,11700724396,-0.349121,0.331543,0.858887,11700724396,11.6875,-13.125,-4.875,11700724396,-0.00537109,0.220886,0.582581,0.782104,0.269208,0.359462,1.32956
11700733222,4,-1,2,-3,3,3,19,12,11700739483,-0.357422,0.361816,0.883789,11700739483,2.1875,-13,-13.75,11700739483,-0.00323486,0.220215,0.58075,0.783691,0.270822,0.356417,1.32451
11700755076,-6,-3,-4,-12,8,1,-23,-16,11700739483,-0.357422,0.361816,0.883789,11700739483,2.1875,-13,-13.75,11700739483,-0.00323486,0.220215,0.58075,0.783691,0.270822,0.356417,1.32451
11700755076,-2,0,-4,1,-13,-10,-3,-1,11700739483,-0.357422,0.361816,0.883789,11700739483,2.1875,-13,-13.75,11700739483,-0.00323486,0.220215,0.58075,0.783691,0.270822,0.356417,1.32451
11700755746,5,0,5,6,1,8,9,7,11700739483,-0.357422,0.361816,0.883789,11700739483,2.1875,-13,-13.75,11700739483,-0.00323486,0.220215,0.58075,0.783691,0.270822,0.356417,1.32451
11700755746,4,3,-5,-8,21,15,30,9,11700762023,-0.367676,0.354492,0.85498,11700762023,-21.375,-15.1875,-12.0625,11700762023,-0.00421143,0.217102,0.579895,0.785156,0.264371,0.353094,1.31963
11700769443,2,3,12,15,-38,-10,-37,-10,11700762023,-0.367676,0.354492,0.85498,11700762023,-21.375,-15.1875,-12.0625,11700762023,-0.00421143,0.217102,0.579895,0.785156,0.264371,0.353094,1.31963
11700769443,-6,-5,-4,-8,-2,-17,1,7,11700762023,-0.367676,0.354492,0.85498,11700762023,-21.375,-15.1875,-12.0625,11700762023,-0.00421143,0.217102,0.579895,0.785156,0.264371,0.353094,1.31963
11700776818,1,1,-4,-4,-8,-4,47,6,11700762023,-0.367676,0.354492,0.85498,11700762023,-21.375,-15.1875,-12.0625,11700762023,-0.00421143,0.217102,0.579895,0.785156,0.264371,0.353094,1.31963
11700776818,-6,-2,-1,-9,15,3,-63,-13,11700784418,-0.339355,0.292969,0.884766,11700784418,-37.25,-17.625,-16,11700784418,-0.00750732,0.211426,0.579163,0.787231,0.250613,0.348595,1.31285
11700792634,1,-1,-6,-7,-1,1,38,11,11700784418,-0.339355,0.292969,0.884766,11700784418,-37.25,-17.625,-16,11700784418,-0.00750732,0.211426,0.579163,0.787231,0.250613,0.348595,1.31285
11700792634,-5,-3,3,3,-5,-7,-44,-9,11700784418,-0.339355,0.292969,0.884766,11700784418,-37.25,-17.625,-16,11700784418,-0.00750732,0.211426,0.579163,0.787231,0.250613,0.348595,1.31285
11700793244,0,-1,2,-4,-4,0,18,6,11700784418,-0.339355,0.292969,0.884766,11700784418,-37.25,-17.625,-16,11700784418,-0.00750732,0.211426,0.579163,0.787231,0.250613,0.348595,1.31285
11700793244,0,-3,-8,-11,0,-8,32,0,11700799412,-0.361816,0.185547,0.891602,11700799412,-28.1875,-21.3125,-27.6875,11700799412,-0.0108032,0.205688,0.576355,0.790771,0.235935,0.344534,1.30083
11700815120,1,0,0,2,5,13,19,13,11700799412,-0.361816,0.185547,0.891602,11700799412,-28.1875,-21.3125,-27.6875,11700799412,-0.0108032,0.205688,0.576355,0.790771,0.235935,0.344534,1.30083
11700815120,5,0,8,18,-7,6,-35,-6,11700799412,-0.361816,0.185547,0.891602,11700799412,-28.1875,-21.3125,-27.6875,11700799412,-0.0108032,0.205688,0.576355,0.790771,0.235935,0.344534,1.30083
11700815748,-7,-4,-5,-7,-1,-10,-3,-3,11700799412,-0.361816,0.185547,0.891602,11700799412,-28.1875,-21.3125,-27.6875,11700799412,-0.0108032,0.205688,0.576355,0.790771,0.235935,0.344534,1.30083
11700815748,1,0,2,5,-6,8,6,3,11700822017,-0.367676,0.18457,0.918945,11700822017,-12.0625,-23,-36.125,11700822017,-0.0119019,0.201355,0.571716,0.795227,0.226091,0.34039,1.28559
11700829426,0,-1,-2,5,28,-9,-24,-28,11700822017,-0.367676,0.18457,0.918945,11700822017,-12.0625,-23,-36.125,11700822017,-0.0119019,0.201355,0.571716,0.795227,0.226091,0.34039,1.28559
11700829426,-2,3,3,9,-36,4,41,33,11700822017,-0.367676,0.18457,0.918945,11700822017,-12.0625,-23,-36.125,11700822017,-0.0119019,0.201355,0.571716,0.795227,0.226091,0.34039,1.28559
11700836934,8,-1,5,8,13,0,10,2,11700822017,-0.367676,0.18457,0.918945,11700822017,-12.0625,-23,-36.125,11700822017,-0.0119019,0.201355,0.571716,0.795227,0.226091,0.34039,1.28559
11700836934,-7,-3,-4,-10,-9,-22,-27,13,11700844509,-0.378418,0.252441,0.928711,11700844509,-6.0625,-25.75,-40.75,11700844509,-0.0114746,0.197815,0.566223,0.799988,0.219582,0.335767,1.26909
11700852562,-3,-2,-2,-5,12,14,9,10,11700844509,-0.378418,0.252441,0.928711,11700844509,-6.0625,-25.75,-40.75,11700844509,-0.0114746,0.197815,0.566223,0.799988,0.219582,0.335767,1.26909
11700852562,0,1,-3,-2,24,21,-28,-49,11700844509,-0.378418,0.252441,0.928711,11700844509,-6.0625,-25.75,-40.75,11700844509,-0.0114746,0.197815,0.566223,0.799988,0.219582,0.335767,1.26909
11700853300,-4,3,-3,-4,-13,-13,-25,8,11700844509,-0.378418,0.252441,0.928711,11700844509,-6.0625,-25.75,-40.75,11700844509,-0.0114746,0.197815,0.566223,0.799988,0.219582,0.335767,1.26909
11700853300,3,4,-4,1,-10,-2,2,-8,11700859374,-0.286133,0.305176,0.940918,11700859374,-6.375,-21.6875,-37.625,11700859374,-0.0102539,0.194336,0.561462,0.80426,0.214893,0.330068,1.25479
11700875017,9,-2,-1,-13,-3,-28,37,49,11700859374,-0.286133,0.305176,0.940918,11700859374,-6.375,-21.6875,-37.625,11700859374,-0.0102539,0.194336,0.561462,0.80426,0.214893,0.330068,1.25479
11700875017,4,4,1,9,17,40,25,-9,11700859374,-0.286133,0.305176,0.940918,11700859374,-6.375,-21.6875,-37.625,11700859374,-0.0102539,0.194336,0.561462,0.80426,0.214893,0.330068,1.25479
11700875771,8,-4,3,4,-15,-2,-8,13,11700859374,-0.286133,0.305176,0.940918,11700859374,-6.375,-21.6875,-37.625,11700859374,-0.0102539,0.194336,0.561462,0.80426,0.214893,0.330068,1.25479
11700875771,5,13,-4,-9,0,-22,5,12,11700882017,-0.294922,0.124512,0.9375,11700882017,-13.1875,-13.75,-28.6875,11700882017,-0.012207,0.190308,0.557861,0.807678,0.204807,0.326821,1.24272
11700889390,-6,-5,-1,12,0,20,1,0,11700882017,-0.294922,0.124512,0.9375,11700882017,-13.1875,-13.75,-28.6875,11700882017,-0.012207,0.190308,0.557861,0.807678,0.204807,0.326821,1.24272
11700889390,3,-1,-2,-6,1,-16,9,27,11700882017,-0.294922,0.124512,0.9375,11700882017,-13.1875,-13.75,-28.6875,11700882017,-0.012207,0.190308,0.557861,0.807678,0.204807,0.326821,1.24272
11700896854,-13,-5,-2,-5,2,-16,-33,-18,11700882017,-0.294922,0.124512,0.9375,11700882017,-13.1875,-13.75,-28.6875,11700882017,-0.012207,0.190308,0.557861,0.807678,0.204807,0.326821,1.24272
11700896854,7,-11,6,20,-2,24,-18,-3,11700904499,-0.339844,0.104492,0.949707,11700904499,-13.625,-18.8125,-25.3125,11700904499,-0.0140381,0.185913,0.554688,0.810852,0.194693,0.322638,1.23163
11700912636,8,8,-6,-20,-5,29,43,-13,11700904499,-0.339844,0.104492,0.949707,11700904499,-13.625,-18.8125,-25.3125,11700904499,-0.0140381,0.185913,0.554688,0.810852,0.194693,0.322638,1.23163
11700912636,-14,-7,-1,7,22,-2,-34,-63,11700904499,-0.339844,0.104492,0.949707,11700904499,-13.625,-18.8125,-25.3125,11700904499,-0.0140381,0.185913,0.554688,0.810852,0.194693,0.322638,1.23163
11700913233,-4,-4,-10,-23,-20,-10,-11,19,11700904499,-0.339844,0.104492,0.949707,11700904499,-13.625,-18.8125,-25.3125,11700904499,-0.0140381,0.185913,0.554688,0.810852,0.194693,0.322638,1.23163
11700913233,-11,-1,6,13,0,-10,-6,-17,11700919450,-0.198242,-0.0673828,1.09131,11700919450,-17.0625,-15.4375,-28.0625,11700919450,-0.0174561,0.178772,0.551331,0.814697,0.178401,0.315759,1.21832
11700935058,-7,-4,-11,-25,1,-14,-34,-46,11700919450,-0.198242,-0.0673828,1.09131,11700919450,-17.0625,-15.4375,-28.0625,11700919450,-0.0174561,0.178772,0.551331,0.814697,0.178401,0.315759,1.21832
11700935058,-2,-2,-1,9,13,-16,-13,-20,11700919450,-0.198242,-0.0673828,1.09131,11700919450,-17.0625,-15.4375,-28.0625,11700919450,-0.0174561,0.178772,0.551331,0.814697,0.178401,0.315759,1.21832
11700935764,9,5,9,14,-22,4,36,-2,11700919450,-0.198242,-0.0673828,1.09131,11700919450,-17.0625,-15.4375,-28.0625,11700919450,-0.0174561,0.178772,0.551331,0.814697,0.178401,0.315759,1.21832
11700935764,4,6,4,12,-7,12,30,24,11700941926,-0.32666,0.0263672,0.958984,11700941926,1.5,-14.625,-16.4375,11700941926,-0.0178223,0.176025,0.548828,0.816956,0.173299,0.312221,1.21037
11700949456,-5,-7,-8,-18,-17,-40,-14,17,11700941926,-0.32666,0.0263672,0.958984,11700941926,1.5,-14.625,-16.4375,11700941926,-0.0178223,0.176025,0.548828,0.816956,0.173299,0.312221,1.21037
11700949456,-13,-3,-7,-21,41,1,-7,-36,11700941926,-0.32666,0.0263672,0.958984,11700941926,1.5,-14.625,-16.4375,11700941926,-0.0178223,0.176025,0.548828,0.816956,0.173299,0.312221,1.21037
11700956990,-7,-2,-3,-13,-26,-14,-30,-41,11700941926,-0.32666,0.0263672,0.958984,11700941926,1.5,-14.625,-16.4375,11700941926,-0.0178223,0.176025,0.548828,0.816956,0.173299,0.312221,1.21037
11700956990,1,-3,-6,13,4,-25,-23,-15,11700964325,-0.334961,0.13623,0.865234,11700964325,-5.125,-18.25,-22.3125,11700964325,-0.0180054,0.17334,0.545715,0.81958,0.168391,0.308661,1.20102
11700972510,5,-2,0,1,-21,5,33,43,11700964325,-0.334961,0.13623,0.865234,11700964325,-5.125,-18.25,-22.3125,11700964325,-0.0180054,0.17334,0.545715,0.81958,0.168391,0.308661,1.20102
11700972510,25,11,22,56,-8,-30,5,18,11700964325,-0.334961,0.13623,0.865234,11700964325,-5.125,-18.25,-22.3125,11700964325,-0.0180054,0.17334,0.545715,0.81958,0.168391,0.308661,1.20102
11700973260,-17,-3,-9,-18,28,-3,-22,-19,11700964325,-0.334961,0.13623,0.865234,11700964325,-5.125,-18.25,-22.3125,11700964325,-0.0180054,0.17334,0.545715,0.81958,0.168391,0.308661,1.20102
11700973260,-23,-13,-1,-9,29,48,25,38,11700979482,-0.280273,0.286621,0.949707,11700979482,3.5625,-22.1875,-26.75,11700979482,-0.0147705,0.171021,0.541992,0.822571,0.169529,0.30193,1.19092
11700995155,17,8,-3,0,-52,8,-4,-11,11700979482,-0.280273,0.286621,0.949707,11700979482,3.5625,-22.1875,-26.75,11700979482,-0.0147705,0.171021,0.541992,0.822571,0.169529,0.30193,1.19092
11700995155,-33,-3,-7,-43,4,-47,12,32,11700979482,-0.280273,0.286621,0.949707,11700979482,3.5625,-22.1875,-26.75,11700979482,-0.0147705,0.171021,0.541992,0.822571,0.169529,0.30193,1.19092
11700995760,20,-14,-8,0,-30,-29,10,-27,11700979482,-0.280273,0.286621,0.949707,11700979482,3.5625,-22.1875,-26.75,11700979482,-0.0147705,0.171021,0.541992,0.822571,0.169529,0.30193,1.19092
11700995760,10,12,0,-4,-17,9,-61,-62,11701002011,-0.309082,0.274902,0.860352,11701002011,-6.0625,-26.875,-33.625,11701002011,-0.0130615,0.167725,0.537476,0.826294,0.166672,0.295502,1.17822
11701009331,-22,-17,-5,-5,30,-26,18,58,11701002011,-0.309082,0.274902,0.860352,11701002011,-6.0625,-26.875,-33.625,11701002011,-0.0130615,0.167725,0.537476,0.826294,0.166672,0.295502,1.17822
11701009331,29,10,-1,-12,-21,90,-41,-90,11701002011,-0.309082,0.274902,0.860352,11701002011,-6.0625,-26.875,-33.625,11701002011,-0.0130615,0.167725,0.537476,0.826294,0.166672,0.295502,1.17822
11701016983,-23,2,1,12,15,35,12,52,11701002011,-0.309082,0.274902,0.860352,11701002011,-6.0625,-26.875,-33.625,11701002011,-0.0130615,0.167725,0.537476,0.826294,0.166672,0.295502,1.17822
11701016983,-9,-16,-6,-25,-8,40,26,33,11701024494,-0.302734,0.276855,0.952148,11701024494,-13.875,-26,-29.375,11701024494,-0.0123291,0.163513,0.533813,0.829529,0.161458,0.288423,1.16707
11701032622,-1,-3,3,2,8,17,-52,-91,11701024494,-0.302734,0.276855,0.952148,11701024494,-13.875,-26,-29.375,11701024494,-0.0123291,0.163513,0.533813,0.829529,0.161458,0.288423,1.16707
11701032622,5,-5,-5,9,-11,49,36,88,11701024494,-0.302734,0.276855,0.952148,11701024494,-13.875,-26,-29.375,11701024494,-0.0123291,0.163513,0.533813,0.829529,0.161458,0.288423,1.16707
11701033288,9,0,-1,-27,18,-47,-32,-87,11701024494,-0.302734,0.276855,0.952148,11701024494,-13.875,-26,-29.375,11701024494,-0.0123291,0.163513,0.533813,0.829529,0.161458,0.288423,1.16707
11701033288,-8,0,-3,15,6,-29,-39,-22,11701039377,-0.307129,0.168945,0.912109,11701039377,-12.875,-25.25,-26.375,11701039377,-0.0125732,0.15918,0.530334,0.832581,0.154604,0.282124,1.15628
11701055177,7,13,3,-7,-74,31,27,10,11701039377,-0.307129,0.168945,0.912109,11701039377,-12.875,-25.25,-26.375,11701039377,-0.0125732,0.15918,0.530334,0.832581,0.154604,0.282124,1.15628
11701055177,-17,-20,-7,17,94,-14,47,94,11701039377,-0.307129,0.168945,0.912109,11701039377,-12.875,-25.25,-26.375,11701039377,-0.0125732,0.15918,0.530334,0.832581,0.154604,0.282124,1.15628
11701055762,27,22,24,34,-25,12,-16,-50,11701039377,-0.307129,0.168945,0.912109,11701039377,-12.875,-25.25,-26.375,11701039377,-0.0125732,0.15918,0.530334,0.832581,0.154604,0.282124,1.15628
11701055762,-23,-6,-10,-32,-10,-41,-20,-11,11701061882,-0.322754,0.169922,0.943359,11701061882,-9.3125,-25.875,-28.75,11701061882,-0.0123901,0.155151,0.526428,0.835815,0.148795,0.275887,1.14478
11701069365,-12,3,-1,-21,53,20,-17,-25,11701061882,-0.322754,0.169922,0.943359,11701061882,-9.3125,-25.875,-28.75,11701061882,-0.0123901,0.155151,0.526428,0.835815,0.148795,0.275887,1.14478
11701069365,-9,-1,-9,-33,-8,-49,-12,-21,11701061882,-0.322754,0.169922,0.943359,11701061882,-9.3125,-25.875,-28.75,11701061882,-0.0123901,0.155151,0.526428,0.835815,0.148795,0.275887,1.14478
11701076930,-1,-5,-2,-24,-103,-23,-3,40,11701061882,-0.322754,0.169922,0.943359,11701061882,-9.3125,-25.875,-28.75,11701061882,-0.0123901,0.155151,0.526428,0.835815,0.148795,0.275887,1.14478
11701076930,16,1,1,-46,30,-7,34,10,11701084385,-0.293457,0.128418,0.952148,11701084385,-9.25,-30.375,-32.625,11701084385,-0.012085,0.150085,0.521912,0.839539,0.141888,0.267809,1.13144
11701092660,-1,3,12,72,51,1,4,17,11701084385,-0.293457,0.128418,0.952148,11701084385,-9.25,-30.375,-32.625,11701084385,-0.012085,0.150085,0.521912,0.839539,0.141888,0.267809,1.13144
11701092660,-5,1,-3,-26,-12,-20,-35,-94,11701084385,-0.293457,0.128418,0.952148,11701084385,-9.25,-30.375,-32.625,11701084385,-0.012085,0.150085,0.521912,0.839539,0.141888,0.267809,1.13144
11701093251,-15,-1,-12,-16,8,7,22,55,11701084385,-0.293457,0.128418,0.952148,11701084385,-9.25,-30.375,-32.625,11701084385,-0.012085,0.150085,0.521912,0.839539,0.141888,0.267809,1.13144
11701093251,7,-20,-10,-29,-17,-25,28,29,11701099530,-0.259277,0.102051,0.970703,11701099530,-3.5625,-28.6875,-31.25,11701099530,-0.0111084,0.145264,0.517456,0.84314,0.136582,0.259349,1.11862
11701115106,-8,7,10,53,16,-21,-60,-59,11701099530,-0.259277,0.102051,0.970703,11701099530,-3.5625,-28.6875,-31.25,11701099530,-0.0111084,0.145264,0.517456,0.84314,0.136582,0.259349,1.11862
11701115106,15,-3,-4,1,-4,7,35,73,11701099530,-0.259277,0.102051,0.970703,11701099530,-3.5625,-28.6875,-31.25,11701099530,-0.0111084,0.145264,0.517456,0.84314,0.136582,0.259349,1.11862
11701115806,18,0,6,16,-7,-3,35,28,11701099530,-0.259277,0.102051,0.970703,11701099530,-3.5625,-28.6875,-31.25,11701099530,-0.0111084,0.145264,0.517456,0.84314,0.136582,0.259349,1.11862
11701115806,-24,-1,-5,-2,5,9,-26,-46,11701129941,-0.241211,0.0600586,1.01709,11701129941,-5.375,-25.375,-21.3125,11701129941,-0.0108032,0.14032,0.514465,0.845825,0.130559,0.251119,1.10933
11701130726,7,-5,-3,-24,13,8,10,-8,11701129941,-0.241211,0.0600586,1.01709,11701129941,-5.375,-25.375,-21.3125,11701129941,-0.0108032,0.14032,0.514465,0.845825,0.130559,0.251119,1.10933
11701130726,-10,6,18,71,3,4,-5,22,11701129941,-0.241211,0.0600586,1.01709,11701129941,-5.375,-25.375,-21.3125,11701129941,-0.0108032,0.14032,0.514465,0.845825,0.130559,0.251119,1.10933
11701136771,2,-6,-8,-16,28,25,10,29,11701129941,-0.241211,0.0600586,1.01709,11701129941,-5.375,-25.375,-21.3125,11701129941,-0.0108032,0.14032,0.514465,0.845825,0.130559,0.251119,1.10933
11701136771,25,19,8,26,-12,5,33,29,11701144324,-0.235352,0.0600586,0.998047,11701144324,-5.6875,-23.375,-15.625,11701144324,-0.010498,0.135803,0.512268,0.8479,0.125348,0.243448,1.10222
11701152448,-24,-20,-20,-63,-6,9,-2,1,11701144324,-0.235352,0.0600586,0.998047,11701144324,-5.6875,-23.375,-15.625,11701144324,-0.010498,0.135803,0.512268,0.8479,0.125348,0.243448,1.10222
11701152448,12,-6,10,49,8,-11,-24,-9,11701144324,-0.235352,0.0600586,0.998047,11701144324,-5.6875,-23.375,-15.625,11701144324,-0.010498,0.135803,0.512268,0.8479,0.125348,0.243448,1.10222
11701153222,21,-3,1,-10,-29,8,13,21,11701144324,-0.235352,0.0600586,0.998047,11701144324,-5.6875,-23.375,-15.625,11701144324,-0.010498,0.135803,0.512268,0.8479,0.125348,0.243448,1.10222
11701153222,-26,1,0,-4,-18,18,11,-4,11701159291,-0.239746,0.0625,0.991699,11701159291,-7.5,-21.25,-13.9375,11701159291,-0.0106201,0.131592,0.510376,0.84967,0.119897,0.236663,1.09597
11701174884,26,3,13,60,20,-26,-7,-6,11701159291,-0.239746,0.0625,0.991699,11701159291,-7.5,-21.25,-13.9375,11701159291,-0.0106201,0.131592,0.510376,0.84967,0.119897,0.236663,1.09597
11701174884,-12,0,-14,-54,-53,-5,13,17,11701159291,-0.239746,0.0625,0.991699,11701159291,-7.5,-21.25,-13.9375,11701159291,-0.0106201,0.131592,0.510376,0.84967,0.119897,0.236663,1.09597
11701175658,-24,-2,-5,18,42,16,-11,-2,11701159291,-0.239746,0.0625,0.991699,11701159291,-7.5,-21.25,-13.9375,11701159291,-0.0106201,0.131592,0.510376,0.84967,0.119897,0.236663,1.09597
11701175658,14,0,5,20,1,-24,-13,-28,11701181830,-0.217773,0.0288086,1.0127,11701181830,-8.0625,-20.125,-10.1875,11701181830,-0.0110474,0.127136,0.509033,0.851135,0.113858,0.229681,1.09099
11701197183,1,11,-5,-28,-2,-11,16,-5,11701181830,-0.217773,0.0288086,1.0127,11701181830,-8.0625,-20.125,-10.1875,11701181830,-0.0110474,0.127136,0.509033,0.851135,0.113858,0.229681,1.09099
11701197183,11,-11,-9,-23,-14,-12,20,37,11701181830,-0.217773,0.0288086,1.0127,11701181830,-8.0625,-20.125,-10.1875,11701181830,-0.0110474,0.127136,0.509033,0.851135,0.113858,0.229681,1.09099
11701204981,-18,-1,4,12,0,-10,-57,-76,11701181830,-0.217773,0.0288086,1.0127,11701181830,-8.0625,-20.125,-10.1875,11701181830,-0.0110474,0.127136,0.509033,0.851135,0.113858,0.229681,1.09099
11701204981,6,-15,-8,3,17,6,-30,14,11701205763,-0.190918,0.0126953,1.02246,11701205763,3.3125,-16.125,-3.0625,11701205763,-0.00994873,0.123962,0.508545,0.851929,0.11214,0.223181,1.08878
11701212434,21,4,-5,-16,2,11,84,107,11701205763,-0.190918,0.0126953,1.02246,11701205763,3.3125,-16.125,-3.0625,11701205763,-0.00994873,0.123962,0.508545,0.851929,0.11214,0.223181,1.08878
11701212434,-5,-4,1,8,-24,-14,-24,-68,11701205763,-0.190918,0.0126953,1.02246,11701205763,3.3125,-16.125,-3.0625,11701205763,-0.00994873,0.123962,0.508545,0.851929,0.11214,0.223181,1.08878
11701213193,-3,5,4,1,2,-15,-9,11,11701205763,-0.190918,0.0126953,1.02246,11701205763,3.3125,-16.125,-3.0625,11701205763,-0.00994873,0.123962,0.508545,0.851929,0.11214,0.223181,1.08878
11701213193,2,3,0,-13,18,6,-16,-37,11701226787,-0.195312,0.074707,1.00879,11701226787,7.875,-12.0625,6.8125,11701226787,-0.0078125,0.122375,0.509399,0.851685,0.114321,0.218136,1.09049
11701234916,3,-4,-4,-12,-66,2,-21,29,11701226787,-0.195312,0.074707,1.00879,11701226787,7.875,-12.0625,6.8125,11701226787,-0.0078125,0.122375,0.509399,0.851685,0.114321,0.218136,1.09049
11701234916,-27,8,-7,-33,1,2,43,8,11701226787,-0.195312,0.074707,1.00879,11701226787,7.875,-12.0625,6.8125,11701226787,-0.0078125,0.122375,0.509399,0.851685,0.114321,0.218136,1.09049
11701235698,20,-8,2,10,54,7,13,-1,11701226787,-0.195312,0.074707,1.00879,11701226787,7.875,-12.0625,6.8125,11701226787,-0.0078125,0.122375,0.509399,0.851685,0.114321,0.218136,1.09049
11701235698,-10,2,11,47,-16,0,7,17,11701241808,-0.148926,0.125977,1,11701241808,5.5625,-11.625,6.75,11701241808,-0.00531006,0.120483,0.510376,0.851379,0.116821,0.212163,1.0924
11701249451,2,-3,-7,-50,-19,-16,8,-16,11701241808,-0.148926,0.125977,1,11701241808,5.5625,-11.625,6.75,11701241808,-0.00531006,0.120483,0.510376,0.851379,0.116821,0.212163,1.0924
11701249451,9,0,4,27,31,15,-28,-32,11701241808,-0.148926,0.125977,1,11701241808,5.5625,-11.625,6.75,11701241808,-0.00531006,0.120483,0.510376,0.851379,0.116821,0.212163,1.0924
11701256830,-37,-8,-13,-21,-9,5,-28,0,11701241808,-0.148926,0.125977,1,11701241808,5.5625,-11.625,6.75,11701241808,-0.00531006,0.120483,0.510376,0.851379,0.116821,0.212163,1.0924
11701256830,35,2,4,22,7,-2,49,41,11701264511,-0.157715,0.128906,1.00977,11701264511,2.375,-9.125,7.8125,11701264511,-0.00354004,0.118835,0.511597,0.850891,0.118373,0.207337,1.0949
11701280747,-29,-4,-2,-7,21,-14,-24,-31,11701264511,-0.157715,0.128906,1.00977,11701264511,2.375,-9.125,7.8125,11701264511,-0.00354004,0.118835,0.511597,0.850891,0.118373,0.207337,1.0949
11701280747,10,5,1,-5,-33,2,8,25,11701264511,-0.157715,0.128906,1.00977,11701264511,2.375,-9.125,7.8125,11701264511,-0.00354004,0.118835,0.511597,0.850891,0.118373,0.207337,1.0949
11701281540,2,-3,-3,9,29,15,12,5,11701264511,-0.157715,0.128906,1.00977,11701264511,2.375,-9.125,7.8125,11701264511,-0.00354004,0.118835,0.511597,0.850891,0.118373,0.207337,1.0949
11701281540,1,-1,-1,-9,-35,-10,-25,-19,11701282252,-0.179688,0.148926,1.00293,11701282252,3.75,-6.375,8,11701282252,-0.00177002,0.118103,0.512756,0.850281,0.120904,0.20407,1.09757
11701295031,-7,-2,3,11,-1,-5,2,-4,11701282252,-0.179688,0.148926,1.00293,11701282252,3.75,-6.375,8,11701282252,-0.00177002,0.118103,0.512756,0.850281,0.120904,0.20407,1.09757
11701295031,-2,0,1,-3,-2,1,-9,-11,11701282252,-0.179688,0.148926,1.00293,11701282252,3.75,-6.375,8,11701282252,-0.00177002,0.118103,0.512756,0.850281,0.120904,0.20407,1.09757
11701295748,1,0,-7,-4,40,-6,9,8,11701282252,-0.179688,0.148926,1.00293,11701282252,3.75,-6.375,8,11701282252,-0.00177002,0.118103,0.512756,0.850281,0.120904,0.20407,1.09757
11701295748,-14,2,12,18,-69,-12,-6,3,11701301863,-0.204102,0.119629,0.97168,11701301863,5.375,-5.8125,6.375,11701301863,-0.000305176,0.117798,0.513611,0.849854,0.123296,0.201904,1.09966
11701309450,7,-1,3,14,-4,-11,-39,-39,11701301863,-0.204102,0.119629,0.97168,11701301863,5.375,-5.8125,6.375,11701301863,-0.000305176,0.117798,0.513611,0.849854,0.123296,0.201904,1.09966
11701309450,1,-6,-8,-23,11,-2,14,3,11701301863,-0.204102,0.119629,0.97168,11701301863,5.375,-5.8125,6.375,11701301863,-0.000305176,0.117798,0.513611,0.849854,0.123296,0.201904,1.09966
11701317499,0,-1,3,3,-11,3,14,-2,11701301863,-0.204102,0.119629,0.97168,11701301863,5.375,-5.8125,6.375,11701301863,-0.000305176,0.117798,0.513611,0.849854,0.123296,0.201904,1.09966
11701317499,0,-1,-10,-14,20,8,17,15,11701318263,-0.221191,0.131348,0.974121,11701318263,4.75,-5.375,5.9375,11701318263,0.000976562,0.117676,0.514404,0.849426,0.125557,0.200245,1.10166
11701332649,-7,-1,0,0,5,5,-21,6,11701318263,-0.221191,0.131348,0.974121,11701318263,4.75,-5.375,5.9375,11701318263,0.000976562,0.117676,0.514404,0.849426,0.125557,0.200245,1.10166
11701332649,7,1,2,6,-17,-7,-7,-6,11701318263,-0.221191,0.131348,0.974121,11701318263,4.75,-5.375,5.9375,11701318263,0.000976562,0.117676,0.514404,0.849426,0.125557,0.200245,1.10166
11701333259,-2,3,3,0,6,3,-8,-4,11701318263,-0.221191,0.131348,0.974121,11701318263,4.75,-5.375,5.9375,11701318263,0.000976562,0.117676,0.514404,0.849426,0.125557,0.200245,1.10166
11701333259,-3,-1,-8,-9,-19,0,5,3,11701339455,-0.202637,0.159668,0.972168,11701339455,2.8125,-5.125,3,11701339455,0.0022583,0.117432,0.514771,0.849182,0.127579,0.198416,1.10255
11701355152,-6,-3,-3,-2,10,1,5,0,11701339455,-0.202637,0.159668,0.972168,11701339455,2.8125,-5.125,3,11701339455,0.0022583,0.117432,0.514771,0.849182,0.127579,0.198416,1.10255
11701355152,-2,1,4,14,-1,0,-6,-2,11701339455,-0.202637,0.159668,0.972168,11701339455,2.8125,-5.125,3,11701339455,0.0022583,0.117432,0.514771,0.849182,0.127579,0.198416,1.10255
11701355861,3,-1,-3,-4,-9,2,2,3,11701339455,-0.202637,0.159668,0.972168,11701339455,2.8125,-5.125,3,11701339455,0.0022583,0.117432,0.514771,0.849182,0.127579,0.198416,1.10255
11701355861,-9,0,-1,-2,19,-5,-9,-16,11701362020,-0.216797,0.162109,0.963379,11701362020,3.5,-5,0.0625,11701362020,0.00341797,0.117493,0.514709,0.849243,0.129626,0.197319,1.10257
11701369336,-2,-2,-2,-9,-7,1,4,0,11701362020,-0.216797,0.162109,0.963379,11701362020,3.5,-5,0.0625,11701362020,0.00341797,0.117493,0.514709,0.849243,0.129626,0.197319,1.10257
11701369336,0,-3,-3,-1,4,-3,-8,-1,11701362020,-0.216797,0.162109,0.963379,11701362020,3.5,-5,0.0625,11701362020,0.00341797,0.117493,0.514709,0.849243,0.129626,0.197319,1.10257
11701377684,-2,0,3,18,6,6,2,-2,11701362020,-0.216797,0.162109,0.963379,11701362020,3.5,-5,0.0625,11701362020,0.00341797,0.117493,0.514709,0.849243,0.129626,0.197319,1.10257
11701377684,-2,-2,-3,-10,9,-9,-1,-8,11701378364,-0.211426,0.168457,0.974121,11701378364,0.5625,-5.25,-2.1875,11701378364,0.00427246,0.117188,0.514404,0.849426,0.130687,0.19594,1.1018
11701392718,-3,0,1,8,7,1,0,0,11701378364,-0.211426,0.168457,0.974121,11701378364,0.5625,-5.25,-2.1875,11701378364,0.00427246,0.117188,0.514404,0.849426,0.130687,0.19594,1.1018
11701392718,3,-1,-4,-14,-7,0,-1,7,11701378364,-0.211426,0.168457,0.974121,11701378364,0.5625,-5.25,-2.1875,11701378364,0.00427246,0.117188,0.514404,0.849426,0.130687,0.19594,1.1018
11701393291,-1,-2,3,13,-6,2,0,0,11701378364,-0.211426,0.168457,0.974121,11701378364,0.5625,-5.25,-2.1875,11701378364,0.00427246,0.117188,0.514404,0.849426,0.130687,0.19594,1.1018
11701393291,-3,-2,-6,-14,8,-5,-7,-9,11701399493,-0.202148,0.0952148,1.00635,11701399493,-3.125,-3.875,1.625,11701399493,0.00384521,0.11615,0.514648,0.849426,0.128867,0.194589,1.10196
11701415143,0,-2,-4,0,-2,1,3,4,11701399493,-0.202148,0.0952148,1.00635,11701399493,-3.125,-3.875,1.625,11701399493,0.00384521,0.11615,0.514648,0.849426,0.128867,0.194589,1.10196
11701415143,-5,0,2,2,-5,0,-5,-3,11701399493,-0.202148,0.0952148,1.00635,11701399493,-3.125,-3.875,1.625,11701399493,0.00384521,0.11615,0.514648,0.849426,0.128867,0.194589,1.10196
11701415835,4,1,-7,-23,-14,-1,-3,-5,11701399493,-0.202148,0.0952148,1.00635,11701399493,-3.125,-3.875,1.625,11701399493,0.00384521,0.11615,0.514648,0.849426,0.128867,0.194589,1.10196
11701415835,0,-2,-1,5,19,2,0,0,11701422106,-0.179199,0.0849609,0.993652,11701422106,8.3125,-0.375,8.1875,11701422106,0.00488281,0.116333,0.515686,0.848755,0.13109,0.193648,1.10459
11701429264,-3,1,3,7,5,-1,0,2,11701422106,-0.179199,0.0849609,0.993652,11701422106,8.3125,-0.375,8.1875,11701422106,0.00488281,0.116333,0.515686,0.848755,0.13109,0.193648,1.10459
11701429264,0,-3,0,9,-33,-11,-2,-3,11701422106,-0.179199,0.0849609,0.993652,11701422106,8.3125,-0.375,8.1875,11701422106,0.00488281,0.116333,0.515686,0.848755,0.13109,0.193648,1.10459
11701437475,-1,-2,-4,-12,-8,-3,-3,-4,11701422106,-0.179199,0.0849609,0.993652,11701422106,8.3125,-0.375,8.1875,11701422106,0.00488281,0.116333,0.515686,0.848755,0.13109,0.193648,1.10459
11701437475,-2,-3,-2,-8,24,5,2,2,11701438267,-0.141113,0.126465,1.00244,11701438267,10.5,-1.5,7.375,11701438267,0.00701904,0.116455,0.516663,0.848145,0.135115,0.191456,1.10717
11701452407,2,0,4,22,-9,-10,0,0,11701438267,-0.141113,0.126465,1.00244,11701438267,10.5,-1.5,7.375,11701438267,0.00701904,0.116455,0.516663,0.848145,0.135115,0.191456,1.10717
11701452407,-4,-2,-8,-23,1,18,-2,-5,11701438267,-0.141113,0.126465,1.00244,11701438267,10.5,-1.5,7.375,11701438267,0.00701904,0.116455,0.516663,0.848145,0.135115,0.191456,1.10717
11701453199,-2,-2,0,-1,-12,-19,-1,2,11701438267,-0.141113,0.126465,1.00244,11701438267,10.5,-1.5,7.375,11701438267,0.00701904,0.116455,0.516663,0.848145,0.135115,0.191456,1.10717
11701453199,-2,1,2,12,11,10,-2,-3,11701459386,-0.153809,0.183594,1.02832,11701459386,6.6875,-0.625,2.9375,11701459386,0.00878906,0.11676,0.517029,0.847839,0.138571,0.190041,1.10832
11701475078,-1,-5,-7,-19,0,18,0,-1,11701459386,-0.153809,0.183594,1.02832,11701459386,6.6875,-0.625,2.9375,11701459386,0.00878906,0.11676,0.517029,0.847839,0.138571,0.190041,1.10832
11701475078,1,3,2,9,-5,-6,0,3,11701459386,-0.153809,0.183594,1.02832,11701459386,6.6875,-0.625,2.9375,11701459386,0.00878906,0.11676,0.517029,0.847839,0.138571,0.190041,1.10832
11701475779,-1,-1,-1,11,1,-8,0,0,11701459386,-0.153809,0.183594,1.02832,11701459386,6.6875,-0.625,2.9375,11701459386,0.00878906,0.11676,0.517029,0.847839,0.138571,0.190041,1.10832
11701475779,-3,0,-9,-35,-14,3,0,-3,11701482037,-0.181641,0.197754,1.02441,11701482037,-4.6875,2.9375,11.9375,11701482037,0.00878906,0.116882,0.518982,0.84668,0.139146,0.189941,1.11302
11701497584,-1,2,7,8,14,5,3,0,11701482037,-0.181641,0.197754,1.02441,11701482037,-4.6875,2.9375,11.9375,11701482037,0.00878906,0.116882,0.518982,0.84668,0.139146,0.189941,1.11302
11701497584,7,3,18,68,-34,-35,-6,-1,11701482037,-0.181641,0.197754,1.02441,11701482037,-4.6875,2.9375,11.9375,11701482037,0.00878906,0.116882,0.518982,0.84668,0.139146,0.189941,1.11302
11701498363,-5,-2,-5,-7,9,19,1,1,11701482037,-0.181641,0.197754,1.02441,11701482037,-4.6875,2.9375,11.9375,11701482037,0.00878906,0.116882,0.518982,0.84668,0.139146,0.189941,1.11302
11701498363,1,-1,3,2,-22,3,0,-2,11701504620,-0.131348,0.196777,1.03418,11701504620,-15.875,6.75,26.8125,11701504620,0.00738525,0.116089,0.523376,0.844055,0.13685,0.18937,1.12301
11701512604,-1,2,-1,5,6,1,1,-1,11701504620,-0.131348,0.196777,1.03418,11701504620,-15.875,6.75,26.8125,11701504620,0.00738525,0.116089,0.523376,0.844055,0.13685,0.18937,1.12301
11701512604,-5,-2,-4,-22,-10,-18,2,2,11701504620,-0.131348,0.196777,1.03418,11701504620,-15.875,6.75,26.8125,11701504620,0.00738525,0.116089,0.523376,0.844055,0.13685,0.18937,1.12301
11701513300,-1,-1,4,27,31,22,2,0,11701504620,-0.131348,0.196777,1.03418,11701504620,-15.875,6.75,26.8125,11701504620,0.00738525,0.116089,0.523376,0.844055,0.13685,0.18937,1.12301
11701513300,2,-1,2,15,8,15,-4,-3,11701519442,-0.0893555,0.0966797,1.04346,11701519442,-9.25,14.9375,32.4375,11701519442,0.00561523,0.115967,0.528503,0.840942,0.134856,0.190253,1.13504
11701535143,-2,-4,-1,1,7,3,0,-2,11701519442,-0.0893555,0.0966797,1.04346,11701519442,-9.25,14.9375,32.4375,11701519442,0.00561523,0.115967,0.528503,0.840942,0.134856,0.190253,1.13504
11701535143,0,-2,-9,-37,0,8,1,-2,11701519442,-0.0893555,0.0966797,1.04346,11701519442,-9.25,14.9375,32.4375,11701519442,0.00561523,0.115967,0.528503,0.840942,0.134856,0.190253,1.13504
11701535741,-1,5,11,35,-19,-29,2,4,11701519442,-0.0893555,0.0966797,1.04346,11701519442,-9.25,14.9375,32.4375,11701519442,0.00561523,0.115967,0.528503,0.840942,0.134856,0.190253,1.13504
11701535741,-1,-5,0,10,40,-51,-5,-3,11701542048,-0.115723,0.0976562,1.0918,11701542048,-4.0625,22.125,37,11701542048,0.00384521,0.117493,0.534119,0.837158,0.134875,0.193824,1.14888
11701557683,-1,-6,-15,-28,-78,29,-24,-15,11701542048,-0.115723,0.0976562,1.0918,11701542048,-4.0625,22.125,37,11701542048,0.00384521,0.117493,0.534119,0.837158,0.134875,0.193824,1.14888
11701557683,-3,0,-5,-7,35,16,1,-1,11701542048,-0.115723,0.0976562,1.0918,11701542048,-4.0625,22.125,37,11701542048,0.00384521,0.117493,0.534119,0.837158,0.134875,0.193824,1.14888
11701558197,0,1,-1,-20,-11,5,4,0,11701542048,-0.115723,0.0976562,1.0918,11701542048,-4.0625,22.125,37,11701542048,0.00384521,0.117493,0.534119,0.837158,0.134875,0.193824,1.14888
11701558197,-3,2,3,7,19,4,6,4,11701564403,-0.13916,0.243652,0.955566,11701564403,19.4375,35.4375,41.0625,11701564403,0.00567627,0.124512,0.539856,0.832458,0.147424,0.202555,1.16563
11701572471,1,2,7,22,-26,-34,2,1,11701564403,-0.13916,0.243652,0.955566,11701564403,19.4375,35.4375,41.0625,11701564403,0.00567627,0.124512,0.539856,0.832458,0.147424,0.202555,1.16563
11701572471,-2,-2,-1,-2,11,2,-2,-3,11701564403,-0.13916,0.243652,0.955566,11701564403,19.4375,35.4375,41.0625,11701564403,0.00567627,0.124512,0.539856,0.832458,0.147424,0.202555,1.16563
11701573216,-4,-4,-4,-8,17,23,-3,-3,11701564403,-0.13916,0.243652,0.955566,11701564403,19.4375,35.4375,41.0625,11701564403,0.00567627,0.124512,0.539856,0.832458,0.147424,0.202555,1.16563
11701573216,3,-2,-4,-6,-27,-5,-4,-4,11701579313,-0.181641,-0.0219727,0.995117,11701579313,15.4375,46.4375,37.9375,11701579313,0.00286865,0.131165,0.544983,0.828064,0.151805,0.215769,1.18054
11701594922,-1,-4,-9,-18,35,-3,3,2,11701579313,-0.181641,-0.0219727,0.995117,11701579313,15.4375,46.4375,37.9375,11701579313,0.00286865,0.131165,0.544983,0.828064,0.151805,0.215769,1.18054
11701594922,-4,1,0,-12,-5,-8,2,-2,11701579313,-0.181641,-0.0219727,0.995117,11701579313,15.4375,46.4375,37.9375,11701579313,0.00286865,0.131165,0.544983,0.828064,0.151805,0.215769,1.18054
11701595676,2,0,0,-1,-2,12,-3,-1,11701579313,-0.181641,-0.0219727,0.995117,11701579313,15.4375,46.4375,37.9375,11701579313,0.00286865,0.131165,0.544983,0.828064,0.151805,0.215769,1.18054
11701595676,-4,-2,-9,-29,24,17,1,-2,11701601808,-0.224609,-0.0551758,1.03857,11701601808,6.75,46.1875,53.5,11701601808,-0.00134277,0.136841,0.552429,0.822205,0.15356,0.228489,1.2008
11701617426,1,1,7,18,27,-9,7,4,11701601808,-0.224609,-0.0551758,1.03857,11701601808,6.75,46.1875,53.5,11701601808,-0.00134277,0.136841,0.552429,0.822205,0.15356,0.228489,1.2008
11701617426,-5,0,4,15,20,44,8,3,11701601808,-0.224609,-0.0551758,1.03857,11701601808,6.75,46.1875,53.5,11701601808,-0.00134277,0.136841,0.552429,0.822205,0.15356,0.228489,1.2008
11701618175,3,0,11,30,0,-51,-1,-1,11701601808,-0.224609,-0.0551758,1.03857,11701601808,6.75,46.1875,53.5,11701601808,-0.00134277,0.136841,0.552429,0.822205,0.15356,0.228489,1.2008
11701618175,1,-2,-6,-29,-78,-19,-6,-3,11701624321,-0.27002,-0.0205078,1.0415,11701624321,23.625,39.4375,62,11701624321,-0.00231934,0.143616,0.560547,0.815491,0.162544,0.239107,1.22385
11701632398,-1,-4,-13,-25,-18,-21,-13,-8,11701624321,-0.27002,-0.0205078,1.0415,11701624321,23.625,39.4375,62,11701624321,-0.00231934,0.143616,0.560547,0.815491,0.162544,0.239107,1.22385
11701632398,-1,1,-3,-11,9,-1,-2,2,11701624321,-0.27002,-0.0205078,1.0415,11701624321,23.625,39.4375,62,11701624321,-0.00231934,0.143616,0.560547,0.815491,0.162544,0.239107,1.22385
11701633179,-2,1,-1,-28,20,12,6,0,11701624321,-0.27002,-0.0205078,1.0415,11701624321,23.625,39.4375,62,11701624321,-0.00231934,0.143616,0.560547,0.815491,0.162544,0.239107,1.22385
11701633179,-1,0,5,46,5,-17,-6,-5,11701639295,-0.30127,0.174805,0.993652,11701639295,36.75,34.4375,49.8125,11701639295,0.000427246,0.152527,0.566589,0.809692,0.18003,0.249083,1.24362
11701654906,0,1,3,3,9,26,1,1,11701639295,-0.30127,0.174805,0.993652,11701639295,36.75,34.4375,49.8125,11701639295,0.000427246,0.152527,0.566589,0.809692,0.18003,0.249083,1.24362
11701654906,-1,-2,-2,-1,8,45,3,-3,11701639295,-0.30127,0.174805,0.993652,11701639295,36.75,34.4375,49.8125,11701639295,0.000427246,0.152527,0.566589,0.809692,0.18003,0.249083,1.24362
11701655679,1,-3,-11,-16,-10,-42,-14,-5,11701639295,-0.30127,0.174805,0.993652,11701639295,36.75,34.4375,49.8125,11701639295,0.000427246,0.152527,0.566589,0.809692,0.18003,0.249083,1.24362
11701655679,1,-1,1,-8,-65,-42,-6,-3,11701661831,-0.276855,0.211914,0.995605,11701661831,23.25,33,53.375,11701661831,0.00201416,0.159668,0.573486,0.803467,0.193918,0.257088,1.2649
11701677446,-3,2,5,8,26,9,10,5,11701661831,-0.276855,0.211914,0.995605,11701661831,23.25,33,53.375,11701661831,0.00201416,0.159668,0.573486,0.803467,0.193918,0.257088,1.2649
11701677446,2,0,-2,-7,5,-15,-8,-3,11701661831,-0.276855,0.211914,0.995605,11701661831,23.25,33,53.375,11701661831,0.00201416,0.159668,0.573486,0.803467,0.193918,0.257088,1.2649
11701678221,0,-3,0,9,23,8,7,2,11701661831,-0.276855,0.211914,0.995605,11701661831,23.25,33,53.375,11701661831,0.00201416,0.159668,0.573486,0.803467,0.193918,0.257088,1.2649
11701678221,1,-3,0,-8,-20,14,-6,-4,11701684459,-0.216309,0.159668,0.978516,11701684459,9.75,38.75,73,11701684459,0.00146484,0.165222,0.583496,0.795044,0.203554,0.264067,1.29325
11701692425,1,1,2,-5,-25,-33,-4,-1,11701684459,-0.216309,0.159668,0.978516,11701684459,9.75,38.75,73,11701684459,0.00146484,0.165222,0.583496,0.795044,0.203554,0.264067,1.29325
11701692425,0,0,2,10,17,12,10,4,11701684459,-0.216309,0.159668,0.978516,11701684459,9.75,38.75,73,11701684459,0.00146484,0.165222,0.583496,0.795044,0.203554,0.264067,1.29325
11701693192,-1,-1,-1,-2,-19,35,-2,-4,11701684459,-0.216309,0.159668,0.978516,11701684459,9.75,38.75,73,11701684459,0.00146484,0.165222,0.583496,0.795044,0.203554,0.264067,1.29325
11701693192,-5,3,0,16,56,-9,2,4,11701699392,-0.251953,0.162109,1.00244,11701699392,6.375,40.1875,81.4375,11701699392,0.000366211,0.170776,0.594604,0.785645,0.212999,0.271216,1.32485
11701715135,-7,-3,-6,-13,-54,9,0,-3,11701699392,-0.251953,0.162109,1.00244,11701699392,6.375,40.1875,81.4375,11701699392,0.000366211,0.170776,0.594604,0.785645,0.212999,0.271216,1.32485
11701715135,3,0,1,-13,-24,-22,-6,-4,11701699392,-0.251953,0.162109,1.00244,11701699392,6.375,40.1875,81.4375,11701699392,0.000366211,0.170776,0.594604,0.785645,0.212999,0.271216,1.32485
11701715820,0,-3,-4,-6,-29,39,0,-1,11701699392,-0.251953,0.162109,1.00244,11701699392,6.375,40.1875,81.4375,11701699392,0.000366211,0.170776,0.594604,0.785645,0.212999,0.271216,1.32485
11701715820,2,0,-1,-13,-9,-44,-12,-1,11701721894,-0.256348,0.236816,0.987793,11701721894,9.25,37.25,83.125,11701721894,0.000549316,0.176575,0.605713,0.775818,0.225158,0.276837,1.35723
11701737626,-14,3,4,38,119,61,21,6,11701721894,-0.256348,0.236816,0.987793,11701721894,9.25,37.25,83.125,11701721894,0.000549316,0.176575,0.605713,0.775818,0.225158,0.276837,1.35723
11701737626,4,-5,-8,-21,-80,13,-3,-3,11701721894,-0.256348,0.236816,0.987793,11701721894,9.25,37.25,83.125,11701721894,0.000549316,0.176575,0.605713,0.775818,0.225158,0.276837,1.35723
11701738352,1,1,-3,-9,-35,-69,-15,-6,11701721894,-0.256348,0.236816,0.987793,11701721894,9.25,37.25,83.125,11701721894,0.000549316,0.176575,0.605713,0.775818,0.225158,0.276837,1.35723
11701738352,-4,3,2,-1,52,52,6,6,11701744335,-0.285645,0.238281,0.929688,11701744335,13.6875,37.4375,81.9375,11701744335,0.0010376,0.183228,0.616272,0.765869,0.239131,0.283146,1.38933
11701752555,4,-2,-2,-12,-42,-84,-11,-3,11701744335,-0.285645,0.238281,0.929688,11701744335,13.6875,37.4375,81.9375,11701744335,0.0010376,0.183228,0.616272,0.765869,0.239131,0.283146,1.38933
11701752555,-6,-5,-7,-15,6,-16,-23,-9,11701744335,-0.285645,0.238281,0.929688,11701744335,13.6875,37.4375,81.9375,11701744335,0.0010376,0.183228,0.616272,0.765869,0.239131,0.283146,1.38933
11701753361,1,3,4,7,46,90,16,8,11701744335,-0.285645,0.238281,0.929688,11701744335,13.6875,37.4375,81.9375,11701744335,0.0010376,0.183228,0.616272,0.765869,0.239131,0.283146,1.38933
11701753361,0,-1,-5,-7,-6,-70,-11,-7,11701759538,-0.318359,0.189941,0.90625,11701759538,4.6875,38.4375,85,11701759538,-0.000427246,0.188904,0.627319,0.755432,0.249234,0.289991,1.4225
11701775148,-2,-2,-5,-5,-38,54,-9,-4,11701759538,-0.318359,0.189941,0.90625,11701759538,4.6875,38.4375,85,11701759538,-0.000427246,0.188904,0.627319,0.755432,0.249234,0.289991,1.4225
11701775148,0,-2,2,13,31,-8,4,4,11701759538,-0.318359,0.189941,0.90625,11701759538,4.6875,38.4375,85,11701759538,-0.000427246,0.188904,0.627319,0.755432,0.249234,0.289991,1.4225
11701775794,-7,-3,-7,-24,-35,23,8,2,11701759538,-0.318359,0.189941,0.90625,11701759538,4.6875,38.4375,85,11701759538,-0.000427246,0.188904,0.627319,0.755432,0.249234,0.289991,1.4225
11701775794,3,-3,3,26,-24,-23,2,0,11701781956,-0.286133,0.238281,0.894531,11701781956,0.75,38.9375,93,11701781956,-0.00152588,0.194092,0.639465,0.743835,0.259982,0.294954,1.4589
11701797633,5,-2,-7,-23,-30,7,2,2,11701781956,-0.286133,0.238281,0.894531,11701781956,0.75,38.9375,93,11701781956,-0.00152588,0.194092,0.639465,0.743835,0.259982,0.294954,1.4589
11701797633,-1,-5,-11,-13,18,-99,-36,-14,11701781956,-0.286133,0.238281,0.894531,11701781956,0.75,38.9375,93,11701781956,-0.00152588,0.194092,0.639465,0.743835,0.259982,0.294954,1.4589
11701798305,1,-1,-2,-8,-29,14,-6,-4,11701781956,-0.286133,0.238281,0.894531,11701781956,0.75,38.9375,93,11701781956,-0.00152588,0.194092,0.639465,0.743835,0.259982,0.294954,1.4589
11701798305,3,3,6,-3,7,72,31,11,11701804536,-0.286133,0.270996,0.900879,11701804536,-7.3125,37.875,93.625,11701804536,-0.0032959,0.198364,0.651794,0.731934,0.268778,0.299116,1.49576
11701812634,-5,1,2,14,27,52,-10,-4,11701804536,-0.286133,0.270996,0.900879,11701804536,-7.3125,37.875,93.625,11701804536,-0.0032959,0.198364,0.651794,0.731934,0.268778,0.299116,1.49576
11701812634,-5,-4,2,35,34,34,20,0,11701804536,-0.286133,0.270996,0.900879,11701804536,-7.3125,37.875,93.625,11701804536,-0.0032959,0.198364,0.651794,0.731934,0.268778,0.299116,1.49576
11701813307,2,-4,-4,-21,-55,-42,-25,-9,11701804536,-0.286133,0.270996,0.900879,11701804536,-7.3125,37.875,93.625,11701804536,-0.0032959,0.198364,0.651794,0.731934,0.268778,0.299116,1.49576
11701813307,-5,4,6,16,60,90,27,9,11701819515,-0.272949,0.262695,0.897949,11701819515,-2.4375,36.625,93.3125,11701819515,-0.0043335,0.202698,0.663696,0.71991,0.278898,0.302178,1.53219
11701835099,6,-2,3,-16,-3,-128,-24,-8,11701819515,-0.272949,0.262695,0.897949,11701819515,-2.4375,36.625,93.3125,11701819515,-0.0043335,0.202698,0.663696,0.71991,0.278898,0.302178,1.53219
11701835099,-16,-4,-11,3,53,78,-16,-5,11701819515,-0.272949,0.262695,0.897949,11701819515,-2.4375,36.625,93.3125,11701819515,-0.0043335,0.202698,0.663696,0.71991,0.278898,0.302178,1.53219
11701835846,-1,2,4,19,39,-47,28,9,11701819515,-0.272949,0.262695,0.897949,11701819515,-2.4375,36.625,93.3125,11701819515,-0.0043335,0.202698,0.663696,0.71991,0.278898,0.302178,1.53219
11701835846,-2,-1,-3,-4,-27,31,-9,-2,11701841906,-0.247559,0.292969,0.88623,11701841906,7.75,36.75,102.812,11701841906,-0.00384521,0.208252,0.676208,0.706543,0.293706,0.304146,1.57211
11701857626,2,4,7,16,8,-1,32,10,11701841906,-0.247559,0.292969,0.88623,11701841906,7.75,36.75,102.812,11701841906,-0.00384521,0.208252,0.676208,0.706543,0.293706,0.304146,1.57211
11701857626,4,6,14,15,0,-1,7,8,11701841906,-0.247559,0.292969,0.88623,11701841906,7.75,36.75,102.812,11701841906,-0.00384521,0.208252,0.676208,0.706543,0.293706,0.304146,1.57211
11701858328,-5,-8,-9,-27,-18,29,12,-6,11701841906,-0.247559,0.292969,0.88623,11701841906,7.75,36.75,102.812,11701841906,-0.00384521,0.208252,0.676208,0.706543,0.293706,0.304146,1.57211
11701858328,0,-2,-9,-23,-16,-92,-27,-10,11701864376,-0.288574,0.335449,0.869629,11701864376,8.3125,43.5625,107.062,11701864376,-0.00396729,0.214722,0.688965,0.6922,0.3096,0.307553,1.61442
11701872629,-6,-5,-6,3,40,-29,-24,-9,11701864376,-0.288574,0.335449,0.869629,11701864376,8.3125,43.5625,107.062,11701864376,-0.00396729,0.214722,0.688965,0.6922,0.3096,0.307553,1.61442
11701872629,0,-4,-7,-16,-3,-34,-3,-8,11701864376,-0.288574,0.335449,0.869629,11701864376,8.3125,43.5625,107.062,11701864376,-0.00396729,0.214722,0.688965,0.6922,0.3096,0.307553,1.61442
11701873338,7,1,-5,-13,-18,-80,-40,-7,11701864376,-0.288574,0.335449,0.869629,11701864376,8.3125,43.5625,107.062,11701864376,-0.00396729,0.214722,0.688965,0.6922,0.3096,0.307553,1.61442
11701873338,-4,4,11,13,65,94,44,15,11701879321,-0.304199,0.321289,0.865234,11701879321,15,45.875,104.562,11701879321,-0.00372314,0.222168,0.700867,0.677734,0.327686,0.311367,1.65615
11701895159,3,0,-3,0,43,126,0,-2,11701879321,-0.304199,0.321289,0.865234,11701879321,15,45.875,104.562,11701879321,-0.00372314,0.222168,0.700867,0.677734,0.327686,0.311367,1.65615
11701895159,2,4,5,9,14,-37,-3,0,11701879321,-0.304199,0.321289,0.865234,11701879321,15,45.875,104.562,11701879321,-0.00372314,0.222168,0.700867,0.677734,0.327686,0.311367,1.65615
11701895801,-8,0,3,28,73,91,13,5,11701879321,-0.304199,0.321289,0.865234,11701879321,15,45.875,104.562,11701879321,-0.00372314,0.222168,0.700867,0.677734,0.327686,0.311367,1.65615
11701895801,4,-13,-15,-57,-93,-23,-60,-27,11701901897,-0.295898,0.289062,0.880371,11701901897,23.4375,45.6875,103.312,11701901897,-0.00256348,0.230408,0.712036,0.663208,0.348469,0.314422,1.69751
11701917648,-5,4,10,18,41,11,17,13,11701901897,-0.295898,0.289062,0.880371,11701901897,23.4375,45.6875,103.312,11701901897,-0.00256348,0.230408,0.712036,0.663208,0.348469,0.314422,1.69751
11701917648,10,0,-5,-5,-32,31,12,4,11701901897,-0.295898,0.289062,0.880371,11701901897,23.4375,45.6875,103.312,11701901897,-0.00256348,0.230408,0.712036,0.663208,0.348469,0.314422,1.69751
11701918347,-7,-2,-2,-1,68,1,-13,-1,11701901897,-0.295898,0.289062,0.880371,11701901897,23.4375,45.6875,103.312,11701901897,-0.00256348,0.230408,0.712036,0.663208,0.348469,0.314422,1.69751
11701918347,12,1,-3,-8,-21,-54,8,1,11701924528,-0.291504,0.305176,0.857422,11701924528,32.875,41,101.375,11701924528,0.000183105,0.239136,0.72229,0.648865,0.372144,0.315266,1.73754
11701932593,2,-2,-4,-9,-8,-39,-12,-2,11701924528,-0.291504,0.305176,0.857422,11701924528,32.875,41,101.375,11701924528,0.000183105,0.239136,0.72229,0.648865,0.372144,0.315266,1.73754
11701932593,1,2,5,-18,-118,-50,-11,1,11701924528,-0.291504,0.305176,0.857422,11701924528,32.875,41,101.375,11701924528,0.000183105,0.239136,0.72229,0.648865,0.372144,0.315266,1.73754
11701933311,-6,-2,2,20,56,29,35,4,11701924528,-0.291504,0.305176,0.857422,11701924528,32.875,41,101.375,11701924528,0.000183105,0.239136,0.72229,0.648865,0.372144,0.315266,1.73754
11701933311,-2,0,-4,7,27,-43,-24,-4,11701939533,-0.352539,0.391602,0.804199,11701939533,35.0625,33.375,92.625,11701939533,0.00366211,0.248169,0.730957,0.635559,0.396854,0.315296,1.77395
11701954897,-5,6,21,44,81,75,50,17,11701939533,-0.352539,0.391602,0.804199,11701939533,35.0625,33.375,92.625,11701939533,0.00366211,0.248169,0.730957,0.635559,0.396854,0.315296,1.77395
11701954897,-7,-17,-34,-51,11,-1,-52,-33,11701939533,-0.352539,0.391602,0.804199,11701939533,35.0625,33.375,92.625,11701939533,0.00366211,0.248169,0.730957,0.635559,0.396854,0.315296,1.77395
11701962687,5,7,8,2,-3,-20,-12,5,11701939533,-0.352539,0.391602,0.804199,11701939533,35.0625,33.375,92.625,11701939533,0.00366211,0.248169,0.730957,0.635559,0.396854,0.315296,1.77395
11701962687,-5,2,7,16,15,73,26,7,11701963422,-0.407227,0.426758,0.830566,11701963422,17.6875,22.75,82.875,11701963422,0.0057373,0.25415,0.739014,0.62384,0.414189,0.31374,1.8058
11701977634,-1,-8,-17,-16,-52,-25,-20,-13,11701963422,-0.407227,0.426758,0.830566,11701963422,17.6875,22.75,82.875,11701963422,0.0057373,0.25415,0.739014,0.62384,0.414189,0.31374,1.8058
11701977634,7,-1,2,-15,-61,-59,-28,-4,11701963422,-0.407227,0.426758,0.830566,11701963422,17.6875,22.75,82.875,11701963422,0.0057373,0.25415,0.739014,0.62384,0.414189,0.31374,1.8058
11701978293,-8,0,10,33,47,89,22,6,11701963422,-0.407227,0.426758,0.830566,11701963422,17.6875,22.75,82.875,11701963422,0.0057373,0.25415,0.739014,0.62384,0.414189,0.31374,1.8058
11701978293,-1,1,-6,5,-3,55,5,0,11701984543,-0.350098,0.433594,0.832031,11701984543,3,10.5625,71.0625,11701984543,0.00775146,0.25647,0.746338,0.614014,0.424384,0.308239,1.83153
11701992716,4,-1,-2,-22,-86,-80,-22,-7,11701984543,-0.350098,0.433594,0.832031,11701984543,3,10.5625,71.0625,11701984543,0.00775146,0.25647,0.746338,0.614014,0.424384,0.308239,1.83153
11701992716,-2,6,17,30,26,59,50,20,11701984543,-0.350098,0.433594,0.832031,11701984543,3,10.5625,71.0625,11701984543,0.00775146,0.25647,0.746338,0.614014,0.424384,0.308239,1.83153
11701993254,-3,-3,-17,-11,-39,-10,-38,-15,11701984543,-0.350098,0.433594,0.832031,11701984543,3,10.5625,71.0625,11701984543,0.00775146,0.25647,0.746338,0.614014,0.424384,0.308239,1.83153
11701993254,1,-7,1,-7,-81,-40,2,-8,11701999564,-0.251465,0.428711,0.861816,11701999564,-7.5625,1.5625,54.5,11701999564,0.00982666,0.255554,0.752625,0.606689,0.428066,0.299762,1.85025
11702015097,0,-5,0,-13,-3,15,-5,-7,11701999564,-0.251465,0.428711,0.861816,11701999564,-7.5625,1.5625,54.5,11701999564,0.00982666,0.255554,0.752625,0.606689,0.428066,0.299762,1.85025
11702015097,-2,2,5,5,4,-2,9,5,11701999564,-0.251465,0.428711,0.861816,11701999564,-7.5625,1.5625,54.5,11701999564,0.00982666,0.255554,0.752625,0.606689,0.428066,0.299762,1.85025
11702015834,-1,3,5,10,30,32,23,11,11701999564,-0.251465,0.428711,0.861816,11701999564,-7.5625,1.5625,54.5,11701999564,0.00982666,0.255554,0.752625,0.606689,0.428066,0.299762,1.85025
11702015834,2,-3,-3,-14,-21,-75,-31,-10,11702022030,-0.221191,0.474121,0.835938,11702022030,2.75,-2.8125,37.0625,11702022030,0.0133057,0.25592,0.75647,0.601624,0.434573,0.291934,1.86263
11702037573,-1,-5,-11,-16,-42,-56,-25,-10,11702022030,-0.221191,0.474121,0.835938,11702022030,2.75,-2.8125,37.0625,11702022030,0.0133057,0.25592,0.75647,0.601624,0.434573,0.291934,1.86263
11702037573,-5,2,7,41,72,85,43,6,11702022030,-0.221191,0.474121,0.835938,11702022030,2.75,-2.8125,37.0625,11702022030,0.0133057,0.25592,0.75647,0.601624,0.434573,0.291934,1.86263
11702038322,0,1,-3,-10,-18,21,-11,0,11702022030,-0.221191,0.474121,0.835938,11702022030,2.75,-2.8125,37.0625,11702022030,0.0133057,0.25592,0.75647,0.601624,0.434573,0.291934,1.86263
11702038322,-8,4,3,20,32,0,12,8,11702044388,-0.23584,0.507812,0.800293,11702044388,2.6875,-5.0625,24.5,11702044388,0.0165405,0.256531,0.758911,0.598206,0.440563,0.285681,1.87081
11702053232,-3,-4,-4,-4,100,74,2,-4,11702044388,-0.23584,0.507812,0.800293,11702044388,2.6875,-5.0625,24.5,11702044388,0.0165405,0.256531,0.758911,0.598206,0.440563,0.285681,1.87081
11702053232,0,1,-6,-19,-25,-27,10,5,11702044388,-0.23584,0.507812,0.800293,11702044388,2.6875,-5.0625,24.5,11702044388,0.0165405,0.256531,0.758911,0.598206,0.440563,0.285681,1.87081
11702060191,5,-5,1,-1,-52,-128,-34,-15,11702044388,-0.23584,0.507812,0.800293,11702044388,2.6875,-5.0625,24.5,11702044388,0.0165405,0.256531,0.758911,0.598206,0.440563,0.285681,1.87081
11702060191,-1,1,2,0,36,42,0,2,11702060917,-0.237793,0.562988,0.777344,11702060917,-2.5,-8.1875,14.3125,11702060917,0.0194702,0.256836,0.760376,0.59613,0.445163,0.280261,1.87551
11702074968,-3,-1,-7,2,-1,-22,-2,-4,11702060917,-0.237793,0.562988,0.777344,11702060917,-2.5,-8.1875,14.3125,11702060917,0.0194702,0.256836,0.760376,0.59613,0.445163,0.280261,1.87551
11702074968,-3,4,9,12,46,83,22,8,11702060917,-0.237793,0.562988,0.777344,11702060917,-2.5,-8.1875,14.3125,11702060917,0.0194702,0.256836,0.760376,0.59613,0.445163,0.280261,1.87551
11702075777,-2,-4,-12,-21,-74,-65,-32,-13,11702060917,-0.237793,0.562988,0.777344,11702060917,-2.5,-8.1875,14.3125,11702060917,0.0194702,0.256836,0.760376,0.59613,0.445163,0.280261,1.87551
11702075777,-5,-4,-5,-4,-6,6,-6,-2,11702082046,-0.222656,0.548828,0.785645,11702082046,-12.3125,-8.375,10.5625,11702082046,0.0213013,0.255554,0.761963,0.594666,0.445563,0.274927,1.87883
11702097491,5,4,8,-21,-67,-12,5,4,11702082046,-0.222656,0.548828,0.785645,11702082046,-12.3125,-8.375,10.5625,11702082046,0.0213013,0.255554,0.761963,0.594666,0.445563,0.274927,1.87883
11702097491,0,-5,-7,8,38,-29,-22,-11,11702082046,-0.222656,0.548828,0.785645,11702082046,-12.3125,-8.375,10.5625,11702082046,0.0213013,0.255554,0.761963,0.594666,0.445563,0.274927,1.87883
11702098248,4,0,2,-7,-25,-17,7,2,11702082046,-0.222656,0.548828,0.785645,11702082046,-12.3125,-8.375,10.5625,11702082046,0.0213013,0.255554,0.761963,0.594666,0.445563,0.274927,1.87883
11702098248,-7,-1,4,18,55,87,7,2,11702104368,-0.223633,0.508789,0.824707,11702104368,-14.0625,-4.3125,7.4375,11702104368,0.0218506,0.253906,0.763306,0.593567,0.443687,0.271382,1.88118
11702111770,3,6,3,23,-25,35,23,7,11702104368,-0.223633,0.508789,0.824707,11702104368,-14.0625,-4.3125,7.4375,11702104368,0.0218506,0.253906,0.763306,0.593567,0.443687,0.271382,1.88118
11702111770,-2,4,4,2,-1,0,10,9,11702104368,-0.223633,0.508789,0.824707,11702104368,-14.0625,-4.3125,7.4375,11702104368,0.0218506,0.253906,0.763306,0.593567,0.443687,0.271382,1.88118
11702120177,0,-4,-3,10,49,79,21,-1,11702104368,-0.223633,0.508789,0.824707,11702104368,-14.0625,-4.3125,7.4375,11702104368,0.0218506,0.253906,0.763306,0.593567,0.443687,0.271382,1.88118
11702120177,0,-4,-6,0,-39,-43,-18,-5,11702120907,-0.262695,0.467773,0.844238,11702120907,-9,-0.1875,3.5,11702120907,0.0215454,0.253296,0.764038,0.592957,0.442509,0.27076,1.88286
11702135105,-1,2,8,13,20,101,30,11,11702120907,-0.262695,0.467773,0.844238,11702120907,-9,-0.1875,3.5,11702120907,0.0215454,0.253296,0.764038,0.592957,0.442509,0.27076,1.88286
11702135105,2,-4,-5,-24,-84,-58,-30,-10,11702120907,-0.262695,0.467773,0.844238,11702120907,-9,-0.1875,3.5,11702120907,0.0215454,0.253296,0.764038,0.592957,0.442509,0.27076,1.88286
11702135756,-2,0,-4,9,44,-2,5,3,11702120907,-0.262695,0.467773,0.844238,11702120907,-9,-0.1875,3.5,11702120907,0.0215454,0.253296,0.764038,0.592957,0.442509,0.27076,1.88286
11702135756,-3,6,13,30,69,108,47,14,11702141899,-0.313965,0.462891,0.841797,11702141899,-2.5,0.625,-2.75,11702141899,0.0210571,0.253906,0.763672,0.59314,0.442931,0.272398,1.88248
11702158124,-6,1,-5,9,-13,25,-14,-3,11702141899,-0.313965,0.462891,0.841797,11702141899,-2.5,0.625,-2.75,11702141899,0.0210571,0.253906,0.763672,0.59314,0.442931,0.272398,1.88248
11702158124,1,-1,3,-5,-25,22,18,8,11702141899,-0.313965,0.462891,0.841797,11702141899,-2.5,0.625,-2.75,11702141899,0.0210571,0.253906,0.763672,0.59314,0.442931,0.272398,1.88248
11702158913,-5,-1,-3,-5,40,29,-5,-4,11702141899,-0.313965,0.462891,0.841797,11702141899,-2.5,0.625,-2.75,11702141899,0.0210571,0.253906,0.763672,0.59314,0.442931,0.272398,1.88248
11702158913,0,0,-1,1,6,-2,2,-1,11702159735,-0.333008,0.442871,0.847168,11702159735,1.8125,0.4375,-4,11702159735,0.0206299,0.254944,0.762939,0.593628,0.444065,0.274645,1.88141
11702171778,0,-3,-2,-14,-49,-63,-13,-4,11702159735,-0.333008,0.442871,0.847168,11702159735,1.8125,0.4375,-4,11702159735,0.0206299,0.254944,0.762939,0.593628,0.444065,0.274645,1.88141
11702171778,-1,-3,-1,-1,-68,-33,-14,-4,11702159735,-0.333008,0.442871,0.847168,11702159735,1.8125,0.4375,-4,11702159735,0.0206299,0.254944,0.762939,0.593628,0.444065,0.274645,1.88141
11702179931,0,1,2,10,37,20,25,7,11702159735,-0.333008,0.442871,0.847168,11702159735,1.8125,0.4375,-4,11702159735,0.0206299,0.254944,0.762939,0.593628,0.444065,0.274645,1.88141
11702179931,2,-3,-6,-27,-50,-46,-8,-3,11702180752,-0.324707,0.442871,0.861816,11702180752,2.4375,0.6875,-3.0625,11702180752,0.0203857,0.255981,0.762329,0.593933,0.445462,0.2765,1.88073
11702194951,-3,-5,-5,4,-14,-17,-14,-10,11702180752,-0.324707,0.442871,0.861816,11702180752,2.4375,0.6875,-3.0625,11702180752,0.0203857,0.255981,0.762329,0.593933,0.445462,0.2765,1.88073
11702194951,1,0,4,3,12,18,7,2,11702180752,-0.324707,0.442871,0.861816,11702180752,2.4375,0.6875,-3.0625,11702180752,0.0203857,0.255981,0.762329,0.593933,0.445462,0.2765,1.88073
11702195743,0,-8,-7,-26,-55,-6,-9,-5,11702180752,-0.324707,0.442871,0.861816,11702180752,2.4375,0.6875,-3.0625,11702180752,0.0203857,0.255981,0.762329,0.593933,0.445462,0.2765,1.88073
11702195743,-4,-2,-5,-5,-20,15,-2,-5,11702201772,-0.321289,0.437012,0.879395,11702201772,0,0,-4.3125,11702201772,0.0198975,0.256409,0.76178,0.594543,0.445466,0.27815,1.87949
11702218150,2,2,4,1,40,-36,2,-2,11702201772,-0.321289,0.437012,0.879395,11702201772,0,0,-4.3125,11702201772,0.0198975,0.256409,0.76178,0.594543,0.445466,0.27815,1.87949
11702218150,-2,-6,-6,11,19,9,-2,-6,11702201772,-0.321289,0.437012,0.879395,11702201772,0,0,-4.3125,11702201772,0.0198975,0.256409,0.76178,0.594543,0.445466,0.27815,1.87949
11702218924,-1,0,-3,-9,-50,-35,-14,-3,11702201772,-0.321289,0.437012,0.879395,11702201772,0,0,-4.3125,11702201772,0.0198975,0.256409,0.76178,0.594543,0.445466,0.27815,1.87949
11702218924,-5,-1,-3,5,89,-2,-8,-1,11702219750,-0.317383,0.421387,0.887207,11702219750,-1.125,-0.1875,-7.1875,11702219750,0.019165,0.25647,0.760986,0.59552,0.444391,0.279939,1.8771
11702240641,-3,-5,-1,6,-28,4,7,0,11702219750,-0.317383,0.421387,0.887207,11702219750,-1.125,-0.1875,-7.1875,11702219750,0.019165,0.25647,0.760986,0.59552,0.444391,0.279939,1.8771
11702240641,-4,2,1,5,17,-8,-4,0,11702219750,-0.317383,0.421387,0.887207,11702219750,-1.125,-0.1875,-7.1875,11702219750,0.019165,0.25647,0.760986,0.59552,0.444391,0.279939,1.8771
11702241400,0,0,1,6,59,27,3,2,11702219750,-0.317383,0.421387,0.887207,11702219750,-1.125,-0.1875,-7.1875,11702219750,0.019165,0.25647,0.760986,0.59552,0.444391,0.279939,1.8771
11702241400,4,-3,-3,-15,-117,-82,-11,-6,11702242220,-0.294922,0.404297,0.874512,11702242220,4.9375,0.1875,-10.25,11702242220,0.0189819,0.257202,0.759644,0.596924,0.444965,0.281942,1.87365
11702255009,-5,1,-2,13,67,20,-3,1,11702242220,-0.294922,0.404297,0.874512,11702242220,4.9375,0.1875,-10.25,11702242220,0.0189819,0.257202,0.759644,0.596924,0.444965,0.281942,1.87365
11702255009,0,-1,0,1,37,28,-3,-3,11702242220,-0.294922,0.404297,0.874512,11702242220,4.9375,0.1875,-10.25,11702242220,0.0189819,0.257202,0.759644,0.596924,0.444965,0.281942,1.87365
11702255726,1,2,3,5,-13,20,3,0,11702242220,-0.294922,0.404297,0.874512,11702242220,4.9375,0.1875,-10.25,11702242220,0.0189819,0.257202,0.759644,0.596924,0.444965,0.281942,1.87365
11702255726,2,-1,-2,-4,6,-2,2,2,11702261853,-0.288086,0.419434,0.875977,11702261853,10.3125,1.5625,-9.8125,11702261853,0.0193481,0.258789,0.758179,0.598145,0.447722,0.284052,1.87074
11702278136,3,1,3,-3,3,21,4,-2,11702261853,-0.288086,0.419434,0.875977,11702261853,10.3125,1.5625,-9.8125,11702261853,0.0193481,0.258789,0.758179,0.598145,0.447722,0.284052,1.87074
11702278136,1,-2,-6,-17,-1,-1,-3,-3,11702261853,-0.288086,0.419434,0.875977,11702261853,10.3125,1.5625,-9.8125,11702261853,0.0193481,0.258789,0.758179,0.598145,0.447722,0.284052,1.87074
11702278873,1,6,10,8,-1,48,24,13,11702261853,-0.288086,0.419434,0.875977,11702261853,10.3125,1.5625,-9.8125,11702261853,0.0193481,0.258789,0.758179,0.598145,0.447722,0.284052,1.87074
11702278873,-2,-4,-4,-11,-86,63,3,-5,11702279733,-0.300293,0.436523,0.862305,11702279733,9.375,1.1875,-8.375,11702279733,0.0197754,0.260437,0.756836,0.599121,0.450717,0.286017,1.86835
11702291780,3,2,0,7,21,-13,12,6,11702279733,-0.300293,0.436523,0.862305,11702279733,9.375,1.1875,-8.375,11702279733,0.0197754,0.260437,0.756836,0.599121,0.450717,0.286017,1.86835
11702291780,-1,1,-1,-9,3,0,-8,-2,11702279733,-0.300293,0.436523,0.862305,11702279733,9.375,1.1875,-8.375,11702279733,0.0197754,0.260437,0.756836,0.599121,0.450717,0.286017,1.86835
11702300420,-2,-2,-1,-2,-6,-25,-3,-4,11702279733,-0.300293,0.436523,0.862305,11702279733,9.375,1.1875,-8.375,11702279733,0.0197754,0.260437,0.756836,0.599121,0.450717,0.286017,1.86835
11702300420,-2,1,0,9,69,57,5,5,11702306850,-0.292969,0.429199,0.855469,11702306850,2.1875,-0.375,-8.875,11702306850,0.0196533,0.260925,0.755737,0.60022,0.451002,0.287462,1.86545
11702314974,-2,-5,-4,-9,-24,6,-12,-3,11702306850,-0.292969,0.429199,0.855469,11702306850,2.1875,-0.375,-8.875,11702306850,0.0196533,0.260925,0.755737,0.60022,0.451002,0.287462,1.86545
11702314974,0,1,-2,-2,-8,0,9,7,11702306850,-0.292969,0.429199,0.855469,11702306850,2.1875,-0.375,-8.875,11702306850,0.0196533,0.260925,0.755737,0.60022,0.451002,0.287462,1.86545
11702315722,2,-3,1,-8,-75,-13,-15,-5,11702306850,-0.292969,0.429199,0.855469,11702306850,2.1875,-0.375,-8.875,11702306850,0.0196533,0.260925,0.755737,0.60022,0.451002,0.287462,1.86545
11702315722,-5,-3,-3,9,75,10,2,-2,11702321789,-0.27832,0.411621,0.866699,11702321789,-2.8125,-1.8125,-11.0625,11702321789,0.019104,0.260315,0.7547,0.601807,0.448758,0.288467,1.86143
11702338172,1,1,1,7,-4,11,5,1,11702321789,-0.27832,0.411621,0.866699,11702321789,-2.8125,-1.8125,-11.0625,11702321789,0.019104,0.260315,0.7547,0.601807,0.448758,0.288467,1.86143
11702338172,0,-4,-4,-8,-9,-67,-17,-5,11702321789,-0.27832,0.411621,0.866699,11702321789,-2.8125,-1.8125,-11.0625,11702321789,0.019104,0.260315,0.7547,0.601807,0.448758,0.288467,1.86143
11702338908,1,0,-3,-9,10,27,5,-8,11702321789,-0.27832,0.411621,0.866699,11702321789,-2.8125,-1.8125,-11.0625,11702321789,0.019104,0.260315,0.7547,0.601807,0.448758,0.288467,1.86143
11702338908,-2,2,1,9,-29,-30,-7,3,11702339756,-0.257324,0.409668,0.874023,11702339756,-1.4375,-3.75,-13.625,11702339756,0.019043,0.259521,0.753418,0.60376,0.446633,0.288675,1.85634
11702351964,-3,-3,-3,-21,53,57,-1,-1,11702339756,-0.257324,0.409668,0.874023,11702339756,-1.4375,-3.75,-13.625,11702339756,0.019043,0.259521,0.753418,0.60376,0.446633,0.288675,1.85634
11702351964,-2,-1,-1,26,71,36,7,-2,11702339756,-0.257324,0.409668,0.874023,11702339756,-1.4375,-3.75,-13.625,11702339756,0.019043,0.259521,0.753418,0.60376,0.446633,0.288675,1.85634
11702360278,0,0,-3,-1,-30,-30,4,7,11702339756,-0.257324,0.409668,0.874023,11702339756,-1.4375,-3.75,-13.625,11702339756,0.019043,0.259521,0.753418,0.60376,0.446633,0.288675,1.85634
11702360278,-1,0,0,-7,-13,-15,-5,-8,11702360906,-0.264648,0.416504,0.855469,11702360906,2.625,-4.875,-17.125,11702360906,0.0194092,0.259338,0.751526,0.60614,0.44588,0.289234,1.85002
11702375107,0,-3,-4,-3,23,-24,-5,0,11702360906,-0.264648,0.416504,0.855469,11702360906,2.625,-4.875,-17.125,11702360906,0.0194092,0.259338,0.751526,0.60614,0.44588,0.289234,1.85002
11702375107,-1,3,1,-3,-2,11,4,2,11702360906,-0.264648,0.416504,0.855469,11702360906,2.625,-4.875,-17.125,11702360906,0.0194092,0.259338,0.751526,0.60614,0.44588,0.289234,1.85002
11702375866,-1,-2,0,-3,22,-4,-7,-4,11702360906,-0.264648,0.416504,0.855469,11702360906,2.625,-4.875,-17.125,11702360906,0.0194092,0.259338,0.751526,0.60614,0.44588,0.289234,1.85002
11702375866,-1,0,2,4,-9,-33,-1,1,11702382025,-0.274414,0.402344,0.856445,11702382025,2.1875,-5.25,-19.5,11702382025,0.0195312,0.259033,0.74939,0.608948,0.44451,0.290261,1.84278
11702397556,-1,-4,-7,-2,-80,-29,-13,-12,11702382025,-0.274414,0.402344,0.856445,11702382025,2.1875,-5.25,-19.5,11702382025,0.0195312,0.259033,0.74939,0.608948,0.44451,0.290261,1.84278
11702397556,-1,-1,3,5,25,14,5,1,11702382025,-0.274414,0.402344,0.856445,11702382025,2.1875,-5.25,-19.5,11702382025,0.0195312,0.259033,0.74939,0.608948,0.44451,0.290261,1.84278
11702398320,-5,-3,-8,5,18,20,-7,-15,11702382025,-0.274414,0.402344,0.856445,11702382025,2.1875,-5.25,-19.5,11702382025,0.0195312,0.259033,0.74939,0.608948,0.44451,0.290261,1.84278
11702398320,2,-4,-14,-31,-20,-89,-31,-1,11702404412,-0.269043,0.410645,0.872559,11702404412,-1.9375,-6.6875,-19.6875,11702404412,0.0194702,0.257996,0.747437,0.611816,0.441646,0.290662,1.83531
11702411947,-1,0,3,2,-1,-6,1,4,11702404412,-0.269043,0.410645,0.872559,11702404412,-1.9375,-6.6875,-19.6875,11702404412,0.0194702,0.257996,0.747437,0.611816,0.441646,0.290662,1.83531
11702411947,5,0,1,-7,-85,-8,1,20,11702404412,-0.269043,0.410645,0.872559,11702404412,-1.9375,-6.6875,-19.6875,11702404412,0.0194702,0.257996,0.747437,0.611816,0.441646,0.290662,1.83531
11702420183,-4,-1,2,2,23,-24,1,-40,11702404412,-0.269043,0.410645,0.872559,11702404412,-1.9375,-6.6875,-19.6875,11702404412,0.0194702,0.257996,0.747437,0.611816,0.441646,0.290662,1.83531
11702420183,0,-1,1,4,20,15,5,9,11702420913,-0.253418,0.416016,0.868164,11702420913,-5.125,-8.4375,-23.125,11702420913,0.0193481,0.256348,0.745239,0.615173,0.43748,0.290633,1.82639
11702434992,1,-3,-3,-6,-3,-8,-4,-5,11702420913,-0.253418,0.416016,0.868164,11702420913,-5.125,-8.4375,-23.125,11702420913,0.0193481,0.256348,0.745239,0.615173,0.43748,0.290633,1.82639
11702434992,-3,-3,-3,-2,3,3,-4,-5,11702420913,-0.253418,0.416016,0.868164,11702420913,-5.125,-8.4375,-23.125,11702420913,0.0193481,0.256348,0.745239,0.615173,0.43748,0.290633,1.82639
11702442717,-2,-2,-3,-1,41,33,6,14,11702420913,-0.253418,0.416016,0.868164,11702420913,-5.125,-8.4375,-23.125,11702420913,0.0193481,0.256348,0.745239,0.615173,0.43748,0.290633,1.82639
11702442717,2,-1,-2,-2,14,0,-1,-3,11702443379,-0.244141,0.393066,0.880371,11702443379,-9.875,-11.5,-34.5625,11702443379,0.0186157,0.253601,0.742065,0.620178,0.430147,0.291018,1.81323
11702457510,2,0,0,-5,-12,-22,-3,14,11702443379,-0.244141,0.393066,0.880371,11702443379,-9.875,-11.5,-34.5625,11702443379,0.0186157,0.253601,0.742065,0.620178,0.430147,0.291018,1.81323
11702457510,-3,-1,-2,0,4,6,-3,-6,11702443379,-0.244141,0.393066,0.880371,11702443379,-9.875,-11.5,-34.5625,11702443379,0.0186157,0.253601,0.742065,0.620178,0.430147,0.291018,1.81323
11702458223,-4,0,1,4,8,8,0,8,11702443379,-0.244141,0.393066,0.880371,11702443379,-9.875,-11.5,-34.5625,11702443379,0.0186157,0.253601,0.742065,0.620178,0.430147,0.291018,1.81323
11702458223,-4,-3,-4,-1,-27,20,0,-9,11702464472,-0.241699,0.373535,0.878418,11702464472,-10,-18,-50.5,11702464472,0.0178833,0.25,0.737122,0.627502,0.420514,0.291497,1.79368
11702480732,-1,2,1,4,14,6,2,6,11702464472,-0.241699,0.373535,0.878418,11702464472,-10,-18,-50.5,11702464472,0.0178833,0.25,0.737122,0.627502,0.420514,0.291497,1.79368
11702480732,1,-1,0,-4,-14,-8,-1,-1,11702464472,-0.241699,0.373535,0.878418,11702464472,-10,-18,-50.5,11702464472,0.0178833,0.25,0.737122,0.627502,0.420514,0.291497,1.79368
11702481497,1,-4,-1,0,-8,-12,-7,9,11702464472,-0.241699,0.373535,0.878418,11702464472,-10,-18,-50.5,11702464472,0.0178833,0.25,0.737122,0.627502,0.420514,0.291497,1.79368
11702481497,-4,3,3,-1,6,5,1,-2,11702482282,-0.253906,0.409668,0.852051,11702482282,-15.5,-26.1875,-63.1875,11702482282,0.017334,0.245483,0.730774,0.636658,0.408919,0.291348,1.76899
11702495162,-1,-3,-2,-2,-13,-10,2,12,11702482282,-0.253906,0.409668,0.852051,11702482282,-15.5,-26.1875,-63.1875,11702482282,0.017334,0.245483,0.730774,0.636658,0.408919,0.291348,1.76899
11702495162,3,0,-3,-2,8,14,0,-4,11702482282,-0.253906,0.409668,0.852051,11702482282,-15.5,-26.1875,-63.1875,11702482282,0.017334,0.245483,0.730774,0.636658,0.408919,0.291348,1.76899
11702495847,-5,-1,-1,-4,-19,-27,-5,-11,11702482282,-0.253906,0.409668,0.852051,11702482282,-15.5,-26.1875,-63.1875,11702482282,0.017334,0.245483,0.730774,0.636658,0.408919,0.291348,1.76899
11702495847,8,2,5,6,24,38,9,32,11702501828,-0.293945,0.429688,0.835938,11702501828,-24,-27.8125,-67.8125,11702501828,0.0157471,0.240295,0.72406,0.646301,0.394781,0.291932,1.74291
11702517541,-11,-3,-1,-4,-1,-8,-10,-50,11702501828,-0.293945,0.429688,0.835938,11702501828,-24,-27.8125,-67.8125,11702501828,0.0157471,0.240295,0.72406,0.646301,0.394781,0.291932,1.74291
11702517541,-1,2,-3,1,14,-3,5,17,11702501828,-0.293945,0.429688,0.835938,11702501828,-24,-27.8125,-67.8125,11702501828,0.0157471,0.240295,0.72406,0.646301,0.394781,0.291932,1.74291
11702518348,-1,-2,-2,-4,-7,-10,-1,9,11702501828,-0.293945,0.429688,0.835938,11702501828,-24,-27.8125,-67.8125,11702501828,0.0157471,0.240295,0.72406,0.646301,0.394781,0.291932,1.74291
11702518348,-1,-4,-1,0,9,0,0,-6,11702524609,-0.271973,0.396484,0.882812,11702524609,-31.25,-27.1875,-68.3125,11702524609,0.0133057,0.233704,0.717529,0.655945,0.377278,0.291615,1.71638
11702540878,1,1,0,2,7,10,-1,-23,11702524609,-0.271973,0.396484,0.882812,11702524609,-31.25,-27.1875,-68.3125,11702524609,0.0133057,0.233704,0.717529,0.655945,0.377278,0.291615,1.71638
11702540878,2,-1,-2,-3,-2,-4,-2,17,11702524609,-0.271973,0.396484,0.882812,11702524609,-31.25,-27.1875,-68.3125,11702524609,0.0133057,0.233704,0.717529,0.655945,0.377278,0.291615,1.71638
11702541558,3,0,-1,2,-8,-9,2,21,11702524609,-0.271973,0.396484,0.882812,11702524609,-31.25,-27.1875,-68.3125,11702524609,0.0133057,0.233704,0.717529,0.655945,0.377278,0.291615,1.71638
11702541558,-16,-6,-7,-8,-6,-12,-15,-69,11702542318,-0.220703,0.290039,0.927246,11702542318,-32.0625,-22.1875,-62.6875,11702542318,0.0100708,0.226318,0.711731,0.664856,0.35783,0.290679,1.69173
11702555484,0,-5,-2,-2,-4,-9,3,-9,11702542318,-0.220703,0.290039,0.927246,11702542318,-32.0625,-22.1875,-62.6875,11702542318,0.0100708,0.226318,0.711731,0.664856,0.35783,0.290679,1.69173
11702555484,-6,-2,4,0,2,8,-4,0,11702542318,-0.220703,0.290039,0.927246,11702542318,-32.0625,-22.1875,-62.6875,11702542318,0.0100708,0.226318,0.711731,0.664856,0.35783,0.290679,1.69173
11702556196,3,2,-3,-6,-3,-10,-3,5,11702542318,-0.220703,0.290039,0.927246,11702542318,-32.0625,-22.1875,-62.6875,11702542318,0.0100708,0.226318,0.711731,0.664856,0.35783,0.290679,1.69173
11702556196,6,-5,-3,0,5,-7,0,13,11702561986,-0.257324,0.225586,0.961426,11702561986,-31.25,-15,-55.6875,11702561986,0.00561523,0.219543,0.706604,0.672607,0.338228,0.291509,1.67013
11702577619,-4,8,1,-4,4,-14,-8,-34,11702561986,-0.257324,0.225586,0.961426,11702561986,-31.25,-15,-55.6875,11702561986,0.00561523,0.219543,0.706604,0.672607,0.338228,0.291509,1.67013
11702577619,1,-4,-3,0,-3,13,5,43,11702561986,-0.257324,0.225586,0.961426,11702561986,-31.25,-15,-55.6875,11702561986,0.00561523,0.219543,0.706604,0.672607,0.338228,0.291509,1.67013
11702578269,3,2,2,-2,-7,-8,0,14,11702561986,-0.257324,0.225586,0.961426,11702561986,-31.25,-15,-55.6875,11702561986,0.00561523,0.219543,0.706604,0.672607,0.338228,0.291509,1.67013
11702578269,-4,0,3,2,11,10,2,-30,11702584532,-0.370605,0.216309,1.03125,11702584532,-24.25,-12.75,-50.3125,11702584532,0.000976562,0.214417,0.701477,0.679626,0.321216,0.294306,1.65039
11702600840,2,-4,-2,0,-7,8,4,69,11702584532,-0.370605,0.216309,1.03125,11702584532,-24.25,-12.75,-50.3125,11702584532,0.000976562,0.214417,0.701477,0.679626,0.321216,0.294306,1.65039
11702600840,-2,1,2,1,-8,-18,1,-21,11702584532,-0.370605,0.216309,1.03125,11702584532,-24.25,-12.75,-50.3125,11702584532,0.000976562,0.214417,0.701477,0.679626,0.321216,0.294306,1.65039
11702601562,-2,-4,-3,-3,-2,-3,0,10,11702584532,-0.370605,0.216309,1.03125,11702584532,-24.25,-12.75,-50.3125,11702584532,0.000976562,0.214417,0.701477,0.679626,0.321216,0.294306,1.65039
11702601562,1,2,1,2,3,-7,3,28,11702602340,-0.457031,0.322754,0.947266,11702602340,-16.25,-14.375,-45.5625,11702602340,-0.00201416,0.212036,0.696289,0.685669,0.31099,0.297968,1.63314
11702615167,2,-2,-1,-2,-3,9,4,0,11702602340,-0.457031,0.322754,0.947266,11702602340,-16.25,-14.375,-45.5625,11702602340,-0.00201416,0.212036,0.696289,0.685669,0.31099,0.297968,1.63314
11702615167,-3,0,-2,-6,0,-3,-5,-9,11702602340,-0.457031,0.322754,0.947266,11702602340,-16.25,-14.375,-45.5625,11702602340,-0.00201416,0.212036,0.696289,0.685669,0.31099,0.297968,1.63314
11702615915,-7,-1,-2,-3,-2,-5,-7,-25,11702602340,-0.457031,0.322754,0.947266,11702602340,-16.25,-14.375,-45.5625,11702602340,-0.00201416,0.212036,0.696289,0.685669,0.31099,0.297968,1.63314
11702615915,-1,2,1,1,2,3,5,22,11702621939,-0.45752,0.33252,0.904785,11702621939,-19.625,-14.9375,-51.9375,11702621939,-0.00537109,0.209473,0.690369,0.692383,0.299617,0.302059,1.61373
11702637603,1,1,0,-1,-3,-4,-2,32,11702621939,-0.45752,0.33252,0.904785,11702621939,-19.625,-14.9375,-51.9375,11702621939,-0.00537109,0.209473,0.690369,0.692383,0.299617,0.302059,1.61373
11702637603,-1,-3,-4,-6,2,-9,-1,-9,11702621939,-0.45752,0.33252,0.904785,11702621939,-19.625,-14.9375,-51.9375,11702621939,-0.00537109,0.209473,0.690369,0.692383,0.299617,0.302059,1.61373
11702638322,1,0,2,3,2,8,6,-19,11702621939,-0.45752,0.33252,0.904785,11702621939,-19.625,-14.9375,-51.9375,11702621939,-0.00537109,0.209473,0.690369,0.692383,0.299617,0.302059,1.61373
11702638322,-5,0,1,0,-4,1,-4,33,11702644596,-0.353027,0.272461,0.946777,11702644596,-25.5,-10.25,-51.25,11702644596,-0.00952148,0.205444,0.684998,0.698853,0.284958,0.304897,1.59476
11702660740,4,-1,-1,2,-2,-9,3,10,11702644596,-0.353027,0.272461,0.946777,11702644596,-25.5,-10.25,-51.25,11702644596,-0.00952148,0.205444,0.684998,0.698853,0.284958,0.304897,1.59476
11702660740,-6,-1,1,-1,8,8,-3,-29,11702644596,-0.353027,0.272461,0.946777,11702644596,-25.5,-10.25,-51.25,11702644596,-0.00952148,0.205444,0.684998,0.698853,0.284958,0.304897,1.59476
11702661530,4,-1,-1,-4,-6,-1,3,19,11702644596,-0.353027,0.272461,0.946777,11702644596,-25.5,-10.25,-51.25,11702644596,-0.00952148,0.205444,0.684998,0.698853,0.284958,0.304897,1.59476
11702661530,5,1,0,-1,-2,-5,-2,8,11702662304,-0.319824,0.263184,1.01025,11702662304,-18.1875,-2.6875,-42.75,11702662304,-0.0130005,0.202576,0.68042,0.704041,0.273456,0.30777,1.57921
11702675135,6,-2,0,-2,-1,-8,-2,10,11702662304,-0.319824,0.263184,1.01025,11702662304,-18.1875,-2.6875,-42.75,11702662304,-0.0130005,0.202576,0.68042,0.704041,0.273456,0.30777,1.57921
11702675135,0,-4,-2,0,3,-1,1,18,11702662304,-0.319824,0.263184,1.01025,11702662304,-18.1875,-2.6875,-42.75,11702662304,-0.0130005,0.202576,0.68042,0.704041,0.273456,0.30777,1.57921
11702675846,-6,-3,-3,-1,4,2,-1,0,11702662304,-0.319824,0.263184,1.01025,11702662304,-18.1875,-2.6875,-42.75,11702662304,-0.0130005,0.202576,0.68042,0.704041,0.273456,0.30777,1.57921
11702675846,-3,-1,3,-4,-10,-8,-8,-49,11702681931,-0.39502,0.222168,0.993652,11702681931,-6.375,-0.25,-34.25,11702681931,-0.0158691,0.201843,0.67627,0.708191,0.266411,0.312408,1.56676
11702697496,16,0,-2,0,3,-1,-2,37,11702681931,-0.39502,0.222168,0.993652,11702681931,-6.375,-0.25,-34.25,11702681931,-0.0158691,0.201843,0.67627,0.708191,0.266411,0.312408,1.56676
11702697496,-5,-4,-3,-1,0,1,8,27,11702681931,-0.39502,0.222168,0.993652,11702681931,-6.375,-0.25,-34.25,11702681931,-0.0158691,0.201843,0.67627,0.708191,0.266411,0.312408,1.56676
11702698261,-17,-2,1,3,-2,9,-1,9,11702681931,-0.39502,0.222168,0.993652,11702681931,-6.375,-0.25,-34.25,11702681931,-0.0158691,0.201843,0.67627,0.708191,0.266411,0.312408,1.56676
11702698261,5,-4,-2,-5,-2,-9,-3,21,11702704376,-0.413086,0.257324,0.960938,11702704376,-24.75,-4.375,-36.1875,11702704376,-0.0203857,0.199036,0.672485,0.712524,0.253821,0.316302,1.55365
11702720649,-7,0,-2,2,-4,9,13,40,11702704376,-0.413086,0.257324,0.960938,11702704376,-24.75,-4.375,-36.1875,11702704376,-0.0203857,0.199036,0.672485,0.712524,0.253821,0.316302,1.55365
11702720649,10,1,3,-1,5,-2,-6,-32,11702704376,-0.413086,0.257324,0.960938,11702704376,-24.75,-4.375,-36.1875,11702704376,-0.0203857,0.199036,0.672485,0.712524,0.253821,0.316302,1.55365
11702721415,14,2,2,3,4,1,6,6,11702704376,-0.413086,0.257324,0.960938,11702704376,-24.75,-4.375,-36.1875,11702704376,-0.0203857,0.199036,0.672485,0.712524,0.253821,0.316302,1.55365
11702721415,4,-2,-3,2,2,10,8,61,11702722231,-0.34668,0.269531,0.903809,11702722231,-37.75,-7.625,-44.75,11702722231,-0.0255737,0.194214,0.668152,0.717712,0.236813,0.318301,1.5374
11702734953,0,-10,-4,-9,-10,-20,-7,-96,11702722231,-0.34668,0.269531,0.903809,11702722231,-37.75,-7.625,-44.75,11702722231,-0.0255737,0.194214,0.668152,0.717712,0.236813,0.318301,1.5374
11702734953,-30,3,-3,1,-8,-4,-11,-28,11702722231,-0.34668,0.269531,0.903809,11702722231,-37.75,-7.625,-44.75,11702722231,-0.0255737,0.194214,0.668152,0.717712,0.236813,0.318301,1.5374
11702735744,-10,-5,1,1,-1,1,6,20,11702722231,-0.34668,0.269531,0.903809,11702722231,-37.75,-7.625,-44.75,11702722231,-0.0255737,0.194214,0.668152,0.717712,0.236813,0.318301,1.5374
