timestamp,emg1,emg2,emg3,emg4,emg5,emg6,emg7,emg8,timestamp_accelerometer,accelerometer-x,accelerometer-y,accelerometer-z,timestamp_gyro,gyro-x,gyro-y,gyro-z,timestamp_orientation,orientation-x,orientation-y,orientation-z,,orientation-w,roll,pitch,yaw
140734799966975,1,0,0,0,0,0,0,0,140734799804352,0,2.76656e+19,4.59163e-41,140734799811190,0,0,0,140734799804384,0,0,0,0,0,0,0
10037471412,-1,-1,0,1,16,24,2,1,140734799804352,0,2.76656e+19,4.59163e-41,140734799811190,0,0,0,140734799804384,0,0,0,0,0,0,0
10037471412,-1,0,1,-1,-8,-18,-4,-3,10037472181,0.178711,-0.544434,0.920898,10037472181,5.3125,-5.875,-14.375,10037472181,0.0871582,-0.153564,0.874451,-0.451843,-0.35476,-0.0136574,-2.18529
10037472979,1,-1,0,-2,-13,2,0,0,10037472181,0.178711,-0.544434,0.920898,10037472181,5.3125,-5.875,-14.375,10037472181,0.0871582,-0.153564,0.874451,-0.451843,-0.35476,-0.0136574,-2.18529
10037472979,-2,-1,-1,5,11,-5,2,1,10037472181,0.178711,-0.544434,0.920898,10037472181,5.3125,-5.875,-14.375,10037472181,0.0871582,-0.153564,0.874451,-0.451843,-0.35476,-0.0136574,-2.18529
10037485227,1,-2,-1,-3,4,1,1,-3,10037472181,0.178711,-0.544434,0.920898,10037472181,5.3125,-5.875,-14.375,10037472181,0.0871582,-0.153564,0.874451,-0.451843,-0.35476,-0.0136574,-2.18529
10037485227,-1,-1,-2,1,-2,9,-2,-2,10037486042,0.182617,-0.503906,0.914062,10037486042,8.875,-5.625,-1.8125,10037486042,0.0899658,-0.152466,0.874573,-0.451416,-0.355412,-0.0197136,-2.18507
10037492097,-1,-1,-1,1,-10,-8,2,0,10037486042,0.182617,-0.503906,0.914062,10037486042,8.875,-5.625,-1.8125,10037486042,0.0899658,-0.152466,0.874573,-0.451416,-0.355412,-0.0197136,-2.18507
10037492097,-2,0,0,0,-1,2,-3,1,10037486042,0.182617,-0.503906,0.914062,10037486042,8.875,-5.625,-1.8125,10037486042,0.0899658,-0.152466,0.874573,-0.451416,-0.355412,-0.0197136,-2.18507
10037508460,-3,-3,-1,3,4,-7,-3,-3,10037486042,0.182617,-0.503906,0.914062,10037486042,8.875,-5.625,-1.8125,10037486042,0.0899658,-0.152466,0.874573,-0.451416,-0.355412,-0.0197136,-2.18507
10037508460,-5,-2,-3,-5,-11,3,-1,2,10037509246,0.171387,-0.474609,0.928711,10037509246,-0.3125,-6.3125,8.8125,10037509246,0.0929565,-0.152649,0.873657,-0.452515,-0.358594,-0.0242749,-2.18137
10037510057,-1,0,0,0,13,0,3,-3,10037509246,0.171387,-0.474609,0.928711,10037509246,-0.3125,-6.3125,8.8125,10037509246,0.0929565,-0.152649,0.873657,-0.452515,-0.358594,-0.0242749,-2.18137
10037510057,-2,-1,-4,-1,-19,-2,-3,-2,10037509246,0.171387,-0.474609,0.928711,10037509246,-0.3125,-6.3125,8.8125,10037509246,0.0929565,-0.152649,0.873657,-0.452515,-0.358594,-0.0242749,-2.18137
10037530920,0,1,2,1,3,-15,-4,-1,10037509246,0.171387,-0.474609,0.928711,10037509246,-0.3125,-6.3125,8.8125,10037509246,0.0929565,-0.152649,0.873657,-0.452515,-0.358594,-0.0242749,-2.18137
10037530920,0,-1,1,-4,3,2,2,0,10037531743,0.166992,-0.519043,0.945312,10037531743,-11.4375,-8.25,20.125,10037531743,0.0968628,-0.154846,0.87146,-0.4552,-0.366347,-0.0278557,-2.17372
10037532608,-1,0,-1,-1,-4,7,-1,0,10037531743,0.166992,-0.519043,0.945312,10037531743,-11.4375,-8.25,20.125,10037531743,0.0968628,-0.154846,0.87146,-0.4552,-0.366347,-0.0278557,-2.17372
10037532608,0,-1,-4,-2,13,4,1,0,10037531743,0.166992,-0.519043,0.945312,10037531743,-11.4375,-8.25,20.125,10037531743,0.0968628,-0.154846,0.87146,-0.4552,-0.366347,-0.0278557,-2.17372
10037545302,-1,-3,-2,3,-14,-2,-4,0,10037531743,0.166992,-0.519043,0.945312,10037531743,-11.4375,-8.25,20.125,10037531743,0.0968628,-0.154846,0.87146,-0.4552,-0.366347,-0.0278557,-2.17372
10037545302,-1,-1,0,-3,-9,-7,0,0,10037546064,0.172852,-0.546875,0.958984,10037546064,-16.375,-10.25,30.0625,10037546064,0.101257,-0.157837,0.868225,-0.459351,-0.376079,-0.0308282,-2.16245
10037552039,0,1,-2,1,-36,-7,0,0,10037546064,0.172852,-0.546875,0.958984,10037546064,-16.375,-10.25,30.0625,10037546064,0.101257,-0.157837,0.868225,-0.459351,-0.376079,-0.0308282,-2.16245
10037552039,0,-2,2,2,26,-1,-2,-3,10037559685,0.191406,-0.562012,0.928711,10037559685,-10.8125,-11.3125,39.625,10037559685,0.105408,-0.160217,0.864319,-0.464966,-0.384598,-0.0332267,-2.14804
10037567751,-2,-1,-2,-7,12,-6,-3,-1,10037559685,0.191406,-0.562012,0.928711,10037559685,-10.8125,-11.3125,39.625,10037559685,0.105408,-0.160217,0.864319,-0.464966,-0.384598,-0.0332267,-2.14804
10037567751,-1,0,-1,2,5,1,-1,0,10037559685,0.191406,-0.562012,0.928711,10037559685,-10.8125,-11.3125,39.625,10037559685,0.105408,-0.160217,0.864319,-0.464966,-0.384598,-0.0332267,-2.14804
10037568519,-1,-2,-1,1,7,-2,1,-2,10037559685,0.191406,-0.562012,0.928711,10037559685,-10.8125,-11.3125,39.625,10037559685,0.105408,-0.160217,0.864319,-0.464966,-0.384598,-0.0332267,-2.14804
10037568519,-2,-1,-4,-1,-21,-2,-8,-2,10037574655,0.203125,-0.546875,0.911133,10037574655,-6.625,-12,49.375,10037574655,0.109009,-0.161804,0.85968,-0.472107,-0.391263,-0.0346546,-2.13032
10037590201,-2,0,-1,-4,-7,-12,-3,-1,10037574655,0.203125,-0.546875,0.911133,10037574655,-6.625,-12,49.375,10037574655,0.109009,-0.161804,0.85968,-0.472107,-0.391263,-0.0346546,-2.13032
10037590201,2,2,3,-1,14,8,4,-1,10037574655,0.203125,-0.546875,0.911133,10037574655,-6.625,-12,49.375,10037574655,0.109009,-0.161804,0.85968,-0.472107,-0.391263,-0.0346546,-2.13032
10037590981,-2,-2,-1,-3,12,9,0,-3,10037574655,0.203125,-0.546875,0.911133,10037574655,-6.625,-12,49.375,10037574655,0.109009,-0.161804,0.85968,-0.472107,-0.391263,-0.0346546,-2.13032
10037590981,0,-1,-2,-2,-27,-22,-3,-1,10037597104,0.217773,-0.544434,0.930664,10037597104,-11.6875,-12.8125,58.375,10037597104,0.112976,-0.164001,0.854126,-0.480469,-0.399504,-0.0354038,-2.10964
10037604618,-4,-1,-2,-1,-2,3,0,-1,10037597104,0.217773,-0.544434,0.930664,10037597104,-11.6875,-12.8125,58.375,10037597104,0.112976,-0.164001,0.854126,-0.480469,-0.399504,-0.0354038,-2.10964
10037604618,-1,-1,-3,1,-4,5,-3,-3,10037597104,0.217773,-0.544434,0.930664,10037597104,-11.6875,-12.8125,58.375,10037597104,0.112976,-0.164001,0.854126,-0.480469,-0.399504,-0.0354038,-2.10964
10037612096,-1,-3,1,-1,3,-6,-2,-1,10037597104,0.217773,-0.544434,0.930664,10037597104,-11.6875,-12.8125,58.375,10037597104,0.112976,-0.164001,0.854126,-0.480469,-0.399504,-0.0354038,-2.10964
10037612096,-1,-1,3,1,12,16,2,0,10037619899,0.220703,-0.546875,0.980469,10037619899,-20.3125,-12.1875,65,10037619899,0.117188,-0.167297,0.847717,-0.489502,-0.410004,-0.0349061,-2.08697
10037627856,-1,-1,-2,-3,-10,-30,-5,-1,10037619899,0.220703,-0.546875,0.980469,10037619899,-20.3125,-12.1875,65,10037619899,0.117188,-0.167297,0.847717,-0.489502,-0.410004,-0.0349061,-2.08697
10037627856,-1,1,0,0,5,8,-1,0,10037619899,0.220703,-0.546875,0.980469,10037619899,-20.3125,-12.1875,65,10037619899,0.117188,-0.167297,0.847717,-0.489502,-0.410004,-0.0349061,-2.08697
10037628647,-1,0,-1,-2,4,-10,-4,-1,10037619899,0.220703,-0.546875,0.980469,10037619899,-20.3125,-12.1875,65,10037619899,0.117188,-0.167297,0.847717,-0.489502,-0.410004,-0.0349061,-2.08697
10037628647,1,-1,-1,1,-12,-1,1,-3,10037634883,0.194824,-0.547363,0.960938,10037634883,-23.4375,-13.6875,71.8125,10037634883,0.121399,-0.171143,0.840515,-0.499512,-0.421577,-0.0331059,-2.06209
10037650426,0,0,-2,4,5,18,2,0,10037634883,0.194824,-0.547363,0.960938,10037634883,-23.4375,-13.6875,71.8125,10037634883,0.121399,-0.171143,0.840515,-0.499512,-0.421577,-0.0331059,-2.06209
10037650426,-2,-2,-1,-1,0,-7,-1,-1,10037634883,0.194824,-0.547363,0.960938,10037634883,-23.4375,-13.6875,71.8125,10037634883,0.121399,-0.171143,0.840515,-0.499512,-0.421577,-0.0331059,-2.06209
10037651099,0,-2,-2,-2,-6,-1,-1,-3,10037634883,0.194824,-0.547363,0.960938,10037634883,-23.4375,-13.6875,71.8125,10037634883,0.121399,-0.171143,0.840515,-0.499512,-0.421577,-0.0331059,-2.06209
10037651099,-2,-1,-1,-4,1,-12,-1,1,10037657323,0.212891,-0.543457,0.91748,10037657323,-22.5625,-16.375,82.6875,10037657323,0.125793,-0.174744,0.832153,-0.511047,-0.433002,-0.0307592,-2.03335
10037664689,-2,-1,-1,-3,-10,16,0,-3,10037657323,0.212891,-0.543457,0.91748,10037657323,-22.5625,-16.375,82.6875,10037657323,0.125793,-0.174744,0.832153,-0.511047,-0.433002,-0.0307592,-2.03335
10037664689,-1,1,1,2,8,-10,-1,-1,10037657323,0.212891,-0.543457,0.91748,10037657323,-22.5625,-16.375,82.6875,10037657323,0.125793,-0.174744,0.832153,-0.511047,-0.433002,-0.0307592,-2.03335
10037672234,-3,-1,0,0,-13,-3,-4,-1,10037657323,0.212891,-0.543457,0.91748,10037657323,-22.5625,-16.375,82.6875,10037657323,0.125793,-0.174744,0.832153,-0.511047,-0.433002,-0.0307592,-2.03335
10037672234,1,-1,-1,-2,-12,-6,2,0,10037679725,0.268066,-0.520508,0.905762,10037679725,-22.3125,-17,94.1875,10037679725,0.13031,-0.177734,0.822693,-0.524048,-0.443594,-0.0281314,-2.00092
10037687787,-1,-1,0,4,17,7,3,0,10037679725,0.268066,-0.520508,0.905762,10037679725,-22.3125,-17,94.1875,10037679725,0.13031,-0.177734,0.822693,-0.524048,-0.443594,-0.0281314,-2.00092
10037687787,-1,-3,-2,0,-5,11,0,-1,10037679725,0.268066,-0.520508,0.905762,10037679725,-22.3125,-17,94.1875,10037679725,0.13031,-0.177734,0.822693,-0.524048,-0.443594,-0.0281314,-2.00092
10037688591,-1,-2,-1,-1,1,-13,0,-2,10037679725,0.268066,-0.520508,0.905762,10037679725,-22.3125,-17,94.1875,10037679725,0.13031,-0.177734,0.822693,-0.524048,-0.443594,-0.0281314,-2.00092
10037688591,-2,-2,1,-1,10,3,0,-2,10037694670,0.304688,-0.502441,0.941895,10037694670,-25.25,-13.9375,103,10037694670,0.132141,-0.182068,0.812073,-0.538391,-0.453451,-0.01857,-1.96635
10037710277,-1,-2,0,-7,-10,-1,-2,3,10037694670,0.304688,-0.502441,0.941895,10037694670,-25.25,-13.9375,103,10037694670,0.132141,-0.182068,0.812073,-0.538391,-0.453451,-0.01857,-1.96635
10037710277,-2,-4,-2,-2,3,11,-1,-1,10037694670,0.304688,-0.502441,0.941895,10037694670,-25.25,-13.9375,103,10037694670,0.132141,-0.182068,0.812073,-0.538391,-0.453451,-0.01857,-1.96635
10037710998,-1,1,0,3,5,2,-1,-1,10037694670,0.304688,-0.502441,0.941895,10037694670,-25.25,-13.9375,103,10037694670,0.132141,-0.182068,0.812073,-0.538391,-0.453451,-0.01857,-1.96635
10037710998,-2,0,-2,1,0,-3,-2,-2,10037717151,0.283691,-0.512207,0.968262,10037717151,-27,-11.625,107.062,10037717151,0.133606,-0.186829,0.800842,-0.55304,-0.463446,-0.00734744,-1.93108
10037724675,0,-1,-2,3,-4,1,-2,-2,10037717151,0.283691,-0.512207,0.968262,10037717151,-27,-11.625,107.062,10037717151,0.133606,-0.186829,0.800842,-0.55304,-0.463446,-0.00734744,-1.93108
10037724675,-1,-3,-2,-1,-4,-3,-1,-2,10037717151,0.283691,-0.512207,0.968262,10037717151,-27,-11.625,107.062,10037717151,0.133606,-0.186829,0.800842,-0.55304,-0.463446,-0.00734744,-1.93108
10037732191,-3,0,0,2,5,3,1,1,10037717151,0.283691,-0.512207,0.968262,10037717151,-27,-11.625,107.062,10037717151,0.133606,-0.186829,0.800842,-0.55304,-0.463446,-0.00734744,-1.93108
10037732191,0,-1,-1,-2,3,2,-3,-1,10037739697,0.237793,-0.542969,0.968262,10037739697,-29.9375,-12.625,111.625,10037739697,0.135254,-0.192017,0.788696,-0.568115,-0.474139,0.00482662,-1.89425
10037747859,0,1,-2,-2,-2,-5,-1,-1,10037739697,0.237793,-0.542969,0.968262,10037739697,-29.9375,-12.625,111.625,10037739697,0.135254,-0.192017,0.788696,-0.568115,-0.474139,0.00482662,-1.89425
10037747859,-1,-2,-5,-2,-10,-14,0,-2,10037739697,0.237793,-0.542969,0.968262,10037739697,-29.9375,-12.625,111.625,10037739697,0.135254,-0.192017,0.788696,-0.568115,-0.474139,0.00482662,-1.89425
10037748693,-1,-3,2,-1,-6,13,-1,0,10037739697,0.237793,-0.542969,0.968262,10037739697,-29.9375,-12.625,111.625,10037739697,0.135254,-0.192017,0.788696,-0.568115,-0.474139,0.00482662,-1.89425
10037748693,0,0,1,0,9,1,3,0,10037754818,0.217773,-0.541504,1.00439,10037754818,-36,-20.0625,115.75,10037754818,0.138245,-0.197266,0.775513,-0.583618,-0.486329,0.0158353,-1.8553
10037770283,-2,0,-1,-3,-11,-8,0,-1,10037754818,0.217773,-0.541504,1.00439,10037754818,-36,-20.0625,115.75,10037754818,0.138245,-0.197266,0.775513,-0.583618,-0.486329,0.0158353,-1.8553
10037770283,-3,0,-1,1,6,0,-4,-2,10037754818,0.217773,-0.541504,1.00439,10037754818,-36,-20.0625,115.75,10037754818,0.138245,-0.197266,0.775513,-0.583618,-0.486329,0.0158353,-1.8553
10037771034,0,-1,-2,-2,-3,-3,0,-1,10037754818,0.217773,-0.541504,1.00439,10037754818,-36,-20.0625,115.75,10037754818,0.138245,-0.197266,0.775513,-0.583618,-0.486329,0.0158353,-1.8553
10037771034,-2,-2,-2,-2,-30,3,-3,-1,10037777307,0.236816,-0.498535,1.00879,10037777307,-44.4375,-30.4375,121.375,10037777307,0.143188,-0.202515,0.760803,-0.599731,-0.500708,0.0250349,-1.81289
10037784830,3,0,2,1,21,-3,-1,-2,10037777307,0.236816,-0.498535,1.00879,10037777307,-44.4375,-30.4375,121.375,10037777307,0.143188,-0.202515,0.760803,-0.599731,-0.500708,0.0250349,-1.81289
10037784830,-2,-1,-2,-5,-6,-14,-3,-2,10037777307,0.236816,-0.498535,1.00879,10037777307,-44.4375,-30.4375,121.375,10037777307,0.143188,-0.202515,0.760803,-0.599731,-0.500708,0.0250349,-1.81289
10037792367,-2,1,-3,-2,-4,-5,-2,-2,10037777307,0.236816,-0.498535,1.00879,10037777307,-44.4375,-30.4375,121.375,10037777307,0.143188,-0.202515,0.760803,-0.599731,-0.500708,0.0250349,-1.81289
10037792367,-2,-1,-1,0,13,7,-2,-1,10037799654,0.266602,-0.452637,0.987305,10037799654,-49.25,-36.6875,129.312,10037799654,0.149109,-0.207581,0.744629,-0.616638,-0.515897,0.0339492,-1.76729
10037807967,-1,-2,1,-7,-13,-12,-3,-2,10037799654,0.266602,-0.452637,0.987305,10037799654,-49.25,-36.6875,129.312,10037799654,0.149109,-0.207581,0.744629,-0.616638,-0.515897,0.0339492,-1.76729
10037807967,-2,-1,-2,-2,-11,1,-3,-1,10037799654,0.266602,-0.452637,0.987305,10037799654,-49.25,-36.6875,129.312,10037799654,0.149109,-0.207581,0.744629,-0.616638,-0.515897,0.0339492,-1.76729
10037808523,-1,-4,1,-1,5,2,-1,-2,10037799654,0.266602,-0.452637,0.987305,10037799654,-49.25,-36.6875,129.312,10037799654,0.149109,-0.207581,0.744629,-0.616638,-0.515897,0.0339492,-1.76729
10037808523,1,-2,-4,-3,12,-3,-4,-2,10037814833,0.260254,-0.428711,0.991699,10037814833,-60.8125,-40.875,134.5,10037814833,0.156433,-0.213623,0.726868,-0.633728,-0.534369,0.0433591,-1.71942
10037830500,0,-3,-3,-4,2,2,8,2,10037814833,0.260254,-0.428711,0.991699,10037814833,-60.8125,-40.875,134.5,10037814833,0.156433,-0.213623,0.726868,-0.633728,-0.534369,0.0433591,-1.71942
10037830500,1,-2,1,2,8,11,-2,-1,10037814833,0.260254,-0.428711,0.991699,10037814833,-60.8125,-40.875,134.5,10037814833,0.156433,-0.213623,0.726868,-0.633728,-0.534369,0.0433591,-1.71942
10037831047,-2,-1,-2,-4,-14,-5,-2,-2,10037814833,0.260254,-0.428711,0.991699,10037814833,-60.8125,-40.875,134.5,10037814833,0.156433,-0.213623,0.726868,-0.633728,-0.534369,0.0433591,-1.71942
10037831047,-1,1,-1,1,-1,5,1,0,10037837174,0.241699,-0.44043,1.01953,10037837174,-75.25,-49.5625,136.812,10037837174,0.166199,-0.220398,0.70752,-0.650513,-0.557196,0.0515885,-1.66941
10037852980,-3,0,0,1,-9,-5,-2,-1,10037837174,0.241699,-0.44043,1.01953,10037837174,-75.25,-49.5625,136.812,10037837174,0.166199,-0.220398,0.70752,-0.650513,-0.557196,0.0515885,-1.66941
10037852980,-2,-1,-1,-4,13,10,0,1,10037837174,0.241699,-0.44043,1.01953,10037837174,-75.25,-49.5625,136.812,10037837174,0.166199,-0.220398,0.70752,-0.650513,-0.557196,0.0515885,-1.66941
10037853711,-1,-2,-1,2,1,-4,1,0,10037837174,0.241699,-0.44043,1.01953,10037837174,-75.25,-49.5625,136.812,10037837174,0.166199,-0.220398,0.70752,-0.650513,-0.557196,0.0515885,-1.66941
10037853711,0,-1,-1,-1,1,-3,-1,-1,10037859840,0.187988,-0.485352,1.03516,10037859840,-84,-57.0625,138.5,10037859840,0.177551,-0.227356,0.68689,-0.667053,-0.582581,0.0594358,-1.61791
10037867961,-2,0,-1,-3,-6,-5,-3,-1,10037859840,0.187988,-0.485352,1.03516,10037859840,-84,-57.0625,138.5,10037859840,0.177551,-0.227356,0.68689,-0.667053,-0.582581,0.0594358,-1.61791
10037867961,0,-1,-1,-4,-17,-12,0,0,10037859840,0.187988,-0.485352,1.03516,10037859840,-84,-57.0625,138.5,10037859840,0.177551,-0.227356,0.68689,-0.667053,-0.582581,0.0594358,-1.61791
10037868564,0,-2,-4,3,5,-3,-1,-1,10037859840,0.187988,-0.485352,1.03516,10037859840,-84,-57.0625,138.5,10037859840,0.177551,-0.227356,0.68689,-0.667053,-0.582581,0.0594358,-1.61791
10037868564,-5,0,1,-5,12,-10,0,-2,10037874629,0.145508,-0.48877,1.05566,10037874629,-81.8125,-64.375,146.062,10037874629,0.188965,-0.233215,0.664612,-0.684265,-0.606403,0.0680382,-1.56297
10037890449,-1,-3,-2,2,5,13,-3,-2,10037874629,0.145508,-0.48877,1.05566,10037874629,-81.8125,-64.375,146.062,10037874629,0.188965,-0.233215,0.664612,-0.684265,-0.606403,0.0680382,-1.56297
10037890449,1,4,5,-3,8,7,1,2,10037874629,0.145508,-0.48877,1.05566,10037874629,-81.8125,-64.375,146.062,10037874629,0.188965,-0.233215,0.664612,-0.684265,-0.606403,0.0680382,-1.56297
10037891134,0,0,1,-3,-20,-26,-2,-1,10037874629,0.145508,-0.48877,1.05566,10037874629,-81.8125,-64.375,146.062,10037874629,0.188965,-0.233215,0.664612,-0.684265,-0.606403,0.0680382,-1.56297
10037891134,0,-2,-3,0,6,3,-2,-1,10037897349,0.225098,-0.437988,1.03076,10037897349,-69.625,-76.5,161.062,10037897349,0.199585,-0.236206,0.640015,-0.703369,-0.624689,0.0768812,-1.50136
10037904819,-2,-1,-6,-1,-30,-8,-2,-2,10037897349,0.225098,-0.437988,1.03076,10037897349,-69.625,-76.5,161.062,10037897349,0.199585,-0.236206,0.640015,-0.703369,-0.624689,0.0768812,-1.50136
10037904819,0,-3,-1,7,16,13,1,-1,10037897349,0.225098,-0.437988,1.03076,10037897349,-69.625,-76.5,161.062,10037897349,0.199585,-0.236206,0.640015,-0.703369,-0.624689,0.0768812,-1.50136
10037912166,-1,0,3,-2,21,10,0,2,10037897349,0.225098,-0.437988,1.03076,10037897349,-69.625,-76.5,161.062,10037897349,0.199585,-0.236206,0.640015,-0.703369,-0.624689,0.0768812,-1.50136
10037912166,-1,1,1,1,-2,21,16,1,10037919908,0.313477,-0.415527,1.01758,10037919908,-63.875,-80.9375,167.188,10037919908,0.209656,-0.237732,0.614136,-0.722778,-0.64011,0.0862477,-1.43727
10037927939,0,-3,1,2,7,-19,-17,-4,10037919908,0.313477,-0.415527,1.01758,10037919908,-63.875,-80.9375,167.188,10037919908,0.209656,-0.237732,0.614136,-0.722778,-0.64011,0.0862477,-1.43727
10037927939,0,-1,-2,-2,-16,-16,-7,-2,10037919908,0.313477,-0.415527,1.01758,10037919908,-63.875,-80.9375,167.188,10037919908,0.209656,-0.237732,0.614136,-0.722778,-0.64011,0.0862477,-1.43727
10037928667,1,-1,1,2,-5,-10,-3,0,10037919908,0.313477,-0.415527,1.01758,10037919908,-63.875,-80.9375,167.188,10037919908,0.209656,-0.237732,0.614136,-0.722778,-0.64011,0.0862477,-1.43727
10037928667,-2,0,-4,2,1,5,8,-2,10037934824,0.249023,-0.416992,0.979004,10037934824,-61.6875,-84.0625,168.938,10037934824,0.21936,-0.238525,0.58728,-0.741699,-0.654015,0.0963251,-1.37217
10037950434,-1,-1,0,-5,4,6,2,-1,10037934824,0.249023,-0.416992,0.979004,10037934824,-61.6875,-84.0625,168.938,10037934824,0.21936,-0.238525,0.58728,-0.741699,-0.654015,0.0963251,-1.37217
10037950434,-1,1,-2,-2,-6,-6,2,-1,10037934824,0.249023,-0.416992,0.979004,10037934824,-61.6875,-84.0625,168.938,10037934824,0.21936,-0.238525,0.58728,-0.741699,-0.654015,0.0963251,-1.37217
10037951090,0,0,-2,1,5,4,-5,-3,10037934824,0.249023,-0.416992,0.979004,10037934824,-61.6875,-84.0625,168.938,10037934824,0.21936,-0.238525,0.58728,-0.741699,-0.654015,0.0963251,-1.37217
10037951090,1,-1,-2,-2,-9,-8,-5,0,10037957230,0.184082,-0.449219,1.00879,10037957230,-53.8125,-84.125,181.438,10037957230,0.227173,-0.238831,0.55835,-0.761353,-0.6641,0.110208,-1.30363
10037964847,-1,-2,-3,-1,0,3,3,0,10037957230,0.184082,-0.449219,1.00879,10037957230,-53.8125,-84.125,181.438,10037957230,0.227173,-0.238831,0.55835,-0.761353,-0.6641,0.110208,-1.30363
10037964847,0,-2,-2,-2,6,-1,-1,-1,10037957230,0.184082,-0.449219,1.00879,10037957230,-53.8125,-84.125,181.438,10037957230,0.227173,-0.238831,0.55835,-0.761353,-0.6641,0.110208,-1.30363
10037972204,0,-3,-4,-3,-10,0,-3,-2,10037957230,0.184082,-0.449219,1.00879,10037957230,-53.8125,-84.125,181.438,10037957230,0.227173,-0.238831,0.55835,-0.761353,-0.6641,0.110208,-1.30363
10037972204,0,0,-1,-1,3,2,-5,-3,10037979693,0.177246,-0.405762,1.04785,10037979693,-24.625,-86.0625,193.375,10037979693,0.230347,-0.236023,0.528259,-0.78241,-0.66202,0.126303,-1.23118
10037987876,0,0,-1,2,-1,1,4,-2,10037979693,0.177246,-0.405762,1.04785,10037979693,-24.625,-86.0625,193.375,10037979693,0.230347,-0.236023,0.528259,-0.78241,-0.66202,0.126303,-1.23118
10037987876,-4,-1,0,2,4,0,1,1,10037979693,0.177246,-0.405762,1.04785,10037979693,-24.625,-86.0625,193.375,10037979693,0.230347,-0.236023,0.528259,-0.78241,-0.66202,0.126303,-1.23118
10037988682,-3,-1,-1,-3,5,6,6,2,10037979693,0.177246,-0.405762,1.04785,10037979693,-24.625,-86.0625,193.375,10037979693,0.230347,-0.236023,0.528259,-0.78241,-0.66202,0.126303,-1.23118
10037988682,-1,-3,-1,-2,-26,-13,-8,-3,10037994837,0.194336,-0.331055,1.00049,10037994837,7.3125,-90.625,204.688,10037994837,0.228882,-0.229675,0.497009,-0.804932,-0.647119,0.142717,-1.1543
10038010442,2,1,-2,2,13,4,-1,0,10037994837,0.194336,-0.331055,1.00049,10037994837,7.3125,-90.625,204.688,10037994837,0.228882,-0.229675,0.497009,-0.804932,-0.647119,0.142717,-1.1543
10038010442,-2,-4,-3,-4,-2,2,4,-3,10037994837,0.194336,-0.331055,1.00049,10037994837,7.3125,-90.625,204.688,10037994837,0.228882,-0.229675,0.497009,-0.804932,-0.647119,0.142717,-1.1543
10038011121,0,-1,1,0,0,-3,0,0,10037994837,0.194336,-0.331055,1.00049,10037994837,7.3125,-90.625,204.688,10037994837,0.228882,-0.229675,0.497009,-0.804932,-0.647119,0.142717,-1.1543
10038011121,-1,-1,0,1,-2,-6,-7,-2,10038017328,0.143555,-0.280762,0.935059,10038017328,14,-89.5,213.062,10038017328,0.225586,-0.223022,0.46405,-0.827087,-0.628175,0.160237,-1.07478
10038024821,-4,-1,-1,-1,-3,0,2,-1,10038017328,0.143555,-0.280762,0.935059,10038017328,14,-89.5,213.062,10038017328,0.225586,-0.223022,0.46405,-0.827087,-0.628175,0.160237,-1.07478
10038024821,-1,-1,-2,1,-8,-6,-6,-4,10038017328,0.143555,-0.280762,0.935059,10038017328,14,-89.5,213.062,10038017328,0.225586,-0.223022,0.46405,-0.827087,-0.628175,0.160237,-1.07478
10038032187,-2,0,-4,-7,4,2,-1,-2,10038017328,0.143555,-0.280762,0.935059,10038017328,14,-89.5,213.062,10038017328,0.225586,-0.223022,0.46405,-0.827087,-0.628175,0.160237,-1.07478
10038032187,0,-2,0,-2,2,10,7,0,10038039816,0.0546875,-0.203125,0.913086,10038039816,-3.25,-90.8125,224.875,10038039816,0.223816,-0.217834,0.427734,-0.848206,-0.612889,0.179024,-0.990882
10038047926,-1,-1,-1,0,-10,-7,-15,-5,10038039816,0.0546875,-0.203125,0.913086,10038039816,-3.25,-90.8125,224.875,10038039816,0.223816,-0.217834,0.427734,-0.848206,-0.612889,0.179024,-0.990882
10038047926,-2,0,-2,-1,1,-3,-1,2,10038039816,0.0546875,-0.203125,0.913086,10038039816,-3.25,-90.8125,224.875,10038039816,0.223816,-0.217834,0.427734,-0.848206,-0.612889,0.179024,-0.990882
10038048512,0,-1,0,3,5,1,-2,-2,10038039816,0.0546875,-0.203125,0.913086,10038039816,-3.25,-90.8125,224.875,10038039816,0.223816,-0.217834,0.427734,-0.848206,-0.612889,0.179024,-0.990882
10038048512,-1,0,-2,0,-9,-10,-6,0,10038054707,0.0102539,-0.213379,0.936523,10038054707,-31.6875,-98.9375,233,10038054707,0.226196,-0.213501,0.388,-0.867615,-0.605402,0.196201,-0.902535
10038070371,-2,-3,1,2,3,1,2,-2,10038054707,0.0102539,-0.213379,0.936523,10038054707,-31.6875,-98.9375,233,10038054707,0.226196,-0.213501,0.388,-0.867615,-0.605402,0.196201,-0.902535
10038070371,-2,-3,1,-2,2,9,-1,-3,10038054707,0.0102539,-0.213379,0.936523,10038054707,-31.6875,-98.9375,233,10038054707,0.226196,-0.213501,0.388,-0.867615,-0.605402,0.196201,-0.902535
10038071106,1,0,-2,-1,-7,2,-1,-1,10038054707,0.0102539,-0.213379,0.936523,10038054707,-31.6875,-98.9375,233,10038054707,0.226196,-0.213501,0.388,-0.867615,-0.605402,0.196201,-0.902535
10038071106,1,-2,-2,-2,6,1,2,-1,10038077204,0.0273438,-0.279297,0.965332,10038077204,-40.1875,-106.25,233.625,10038077204,0.22998,-0.208191,0.346863,-0.885193,-0.599257,0.210588,-0.812267
10038092905,0,1,2,1,0,1,2,0,10038077204,0.0273438,-0.279297,0.965332,10038077204,-40.1875,-106.25,233.625,10038077204,0.22998,-0.208191,0.346863,-0.885193,-0.599257,0.210588,-0.812267
10038092905,-1,1,-2,-1,-10,-3,-2,0,10038077204,0.0273438,-0.279297,0.965332,10038077204,-40.1875,-106.25,233.625,10038077204,0.22998,-0.208191,0.346863,-0.885193,-0.599257,0.210588,-0.812267
10038093696,-1,0,-1,-1,-2,0,1,-1,10038077204,0.0273438,-0.279297,0.965332,10038077204,-40.1875,-106.25,233.625,10038077204,0.22998,-0.208191,0.346863,-0.885193,-0.599257,0.210588,-0.812267
10038093696,2,-3,1,2,4,-13,-3,-1,10038099819,0.00683594,-0.36377,0.935059,10038099819,-20.1875,-110.5,229.25,10038099819,0.230896,-0.2005,0.306152,-0.90155,-0.585541,0.221962,-0.721908
10038115994,-5,-1,-1,-1,-2,-2,3,0,10038099819,0.00683594,-0.36377,0.935059,10038099819,-20.1875,-110.5,229.25,10038099819,0.230896,-0.2005,0.306152,-0.90155,-0.585541,0.221962,-0.721908
10038115994,-1,-2,-2,2,-7,7,-1,-1,10038099819,0.00683594,-0.36377,0.935059,10038099819,-20.1875,-110.5,229.25,10038099819,0.230896,-0.2005,0.306152,-0.90155,-0.585541,0.221962,-0.721908
10038116687,-2,-2,-1,2,3,-2,-4,-3,10038099819,0.00683594,-0.36377,0.935059,10038099819,-20.1875,-110.5,229.25,10038099819,0.230896,-0.2005,0.306152,-0.90155,-0.585541,0.221962,-0.721908
10038116687,0,-3,1,0,-3,-7,-1,0,10038117596,-0.0507812,-0.300781,0.91748,10038117596,7.375,-118.188,227.5,10038117596,0.227356,-0.189819,0.265686,-0.917419,-0.560932,0.229486,-0.630138
10038130246,2,3,0,-3,-2,-13,4,2,10038117596,-0.0507812,-0.300781,0.91748,10038117596,7.375,-118.188,227.5,10038117596,0.227356,-0.189819,0.265686,-0.917419,-0.560932,0.229486,-0.630138
10038130246,2,-1,1,-2,5,7,1,0,10038117596,-0.0507812,-0.300781,0.91748,10038117596,7.375,-118.188,227.5,10038117596,0.227356,-0.189819,0.265686,-0.917419,-0.560932,0.229486,-0.630138
10038131005,-2,-2,-1,2,-5,-4,-2,-2,10038117596,-0.0507812,-0.300781,0.91748,10038117596,7.375,-118.188,227.5,10038117596,0.227356,-0.189819,0.265686,-0.917419,-0.560932,0.229486,-0.630138
10038131005,-1,0,-1,-2,-3,-2,0,0,10038137364,-0.0336914,-0.197266,0.893066,10038137364,25.375,-128.438,230.375,10038137364,0.220764,-0.176331,0.224426,-0.932678,-0.528741,0.231902,-0.535346
10038152772,-2,-3,-1,-1,-2,3,-3,-2,10038137364,-0.0336914,-0.197266,0.893066,10038137364,25.375,-128.438,230.375,10038137364,0.220764,-0.176331,0.224426,-0.932678,-0.528741,0.231902,-0.535346
10038152772,-2,-1,-2,0,-7,-6,-1,-2,10038137364,-0.0336914,-0.197266,0.893066,10038137364,25.375,-128.438,230.375,10038137364,0.220764,-0.176331,0.224426,-0.932678,-0.528741,0.231902,-0.535346
10038153613,-3,-1,-1,-5,-1,-4,-3,-1,10038137364,-0.0336914,-0.197266,0.893066,10038137364,25.375,-128.438,230.375,10038137364,0.220764,-0.176331,0.224426,-0.932678,-0.528741,0.231902,-0.535346
10038153613,0,1,0,-2,7,5,0,-2,10038159852,0.0576172,-0.124023,0.916992,10038159852,16.8125,-132.062,224.375,10038159852,0.215332,-0.161682,0.183289,-0.945496,-0.499442,0.228795,-0.441572
10038167777,-2,-1,-2,-1,-3,5,0,-1,10038159852,0.0576172,-0.124023,0.916992,10038159852,16.8125,-132.062,224.375,10038159852,0.215332,-0.161682,0.183289,-0.945496,-0.499442,0.228795,-0.441572
10038167777,-2,-1,-1,-1,-8,-8,-4,-1,10038159852,0.0576172,-0.124023,0.916992,10038159852,16.8125,-132.062,224.375,10038159852,0.215332,-0.161682,0.183289,-0.945496,-0.499442,0.228795,-0.441572
10038168531,-1,-4,0,2,2,1,-1,0,10038159852,0.0576172,-0.124023,0.916992,10038159852,16.8125,-132.062,224.375,10038159852,0.215332,-0.161682,0.183289,-0.945496,-0.499442,0.228795,-0.441572
10038168531,0,-1,-1,-5,2,8,1,-1,10038174633,0.0297852,-0.14502,0.894531,10038174633,6.3125,-126.438,218.438,10038174633,0.211243,-0.147888,0.142639,-0.955627,-0.475044,0.224264,-0.35086
10038190229,-2,-1,-2,-1,0,-34,-6,-2,10038174633,0.0297852,-0.14502,0.894531,10038174633,6.3125,-126.438,218.438,10038174633,0.211243,-0.147888,0.142639,-0.955627,-0.475044,0.224264,-0.35086
10038190229,-1,-3,-2,-1,3,14,1,-3,10038174633,0.0297852,-0.14502,0.894531,10038174633,6.3125,-126.438,218.438,10038174633,0.211243,-0.147888,0.142639,-0.955627,-0.475044,0.224264,-0.35086
10038191005,0,-1,2,-3,-5,-3,2,-1,10038174633,0.0297852,-0.14502,0.894531,10038174633,6.3125,-126.438,218.438,10038174633,0.211243,-0.147888,0.142639,-0.955627,-0.475044,0.224264,-0.35086
10038191005,-4,3,-1,-2,1,-6,-5,1,10038197116,-0.0288086,-0.150391,0.894531,10038197116,-5.5625,-133.125,214.938,10038197116,0.209045,-0.133057,0.101685,-0.963501,-0.455677,0.215552,-0.26047
10038212742,2,1,0,-3,0,10,0,0,10038197116,-0.0288086,-0.150391,0.894531,10038197116,-5.5625,-133.125,214.938,10038197116,0.209045,-0.133057,0.101685,-0.963501,-0.455677,0.215552,-0.26047
10038212742,1,-4,-3,0,-8,-3,3,1,10038197116,-0.0288086,-0.150391,0.894531,10038197116,-5.5625,-133.125,214.938,10038197116,0.209045,-0.133057,0.101685,-0.963501,-0.455677,0.215552,-0.26047
10038213513,-4,-1,-3,-3,10,-11,-7,-6,10038197116,-0.0288086,-0.150391,0.894531,10038197116,-5.5625,-133.125,214.938,10038197116,0.209045,-0.133057,0.101685,-0.963501,-0.455677,0.215552,-0.26047
10038213513,-1,-2,-3,0,-1,9,-4,-1,10038219638,0.0366211,-0.108887,0.914551,10038219638,-10,-138.875,208.062,10038219638,0.207397,-0.116699,0.0614014,-0.96936,-0.439039,0.202152,-0.17177
10038227745,1,-3,-2,-5,2,5,5,0,10038219638,0.0366211,-0.108887,0.914551,10038219638,-10,-138.875,208.062,10038219638,0.207397,-0.116699,0.0614014,-0.96936,-0.439039,0.202152,-0.17177
10038227745,0,2,1,-5,-3,-6,-1,-1,10038219638,0.0366211,-0.108887,0.914551,10038219638,-10,-138.875,208.062,10038219638,0.207397,-0.116699,0.0614014,-0.96936,-0.439039,0.202152,-0.17177
10038228593,1,2,1,-3,-5,6,1,-1,10038219638,0.0366211,-0.108887,0.914551,10038219638,-10,-138.875,208.062,10038219638,0.207397,-0.116699,0.0614014,-0.96936,-0.439039,0.202152,-0.17177
10038228593,-1,-2,-1,-4,-1,-6,1,-1,10038234652,0.112305,-0.126465,0.882324,10038234652,-12.1875,-136.312,192.375,10038234652,0.206116,-0.0997925,0.0238037,-0.973145,-0.425739,0.185474,-0.0891107
10038250069,-1,-2,-2,2,8,9,1,0,10038234652,0.112305,-0.126465,0.882324,10038234652,-12.1875,-136.312,192.375,10038234652,0.206116,-0.0997925,0.0238037,-0.973145,-0.425739,0.185474,-0.0891107
10038250069,-2,-2,-2,0,-15,-9,-6,-2,10038234652,0.112305,-0.126465,0.882324,10038234652,-12.1875,-136.312,192.375,10038234652,0.206116,-0.0997925,0.0238037,-0.973145,-0.425739,0.185474,-0.0891107
10038257782,0,1,-3,-1,1,3,-1,0,10038234652,0.112305,-0.126465,0.882324,10038234652,-12.1875,-136.312,192.375,10038234652,0.206116,-0.0997925,0.0238037,-0.973145,-0.425739,0.185474,-0.0891107
10038257782,0,-1,0,-2,-4,-14,-6,-1,10038258588,0.123535,-0.168945,0.90918,10038258588,-14.75,-130.375,172.125,10038258588,0.205444,-0.0830688,-0.0102539,-0.975098,-0.416519,0.166989,-0.0143348
10038272764,2,-3,0,1,1,7,1,1,10038258588,0.123535,-0.168945,0.90918,10038258588,-14.75,-130.375,172.125,10038258588,0.205444,-0.0830688,-0.0102539,-0.975098,-0.416519,0.166989,-0.0143348
10038272764,-1,-2,0,1,12,-1,3,-3,10038258588,0.123535,-0.168945,0.90918,10038258588,-14.75,-130.375,172.125,10038258588,0.205444,-0.0830688,-0.0102539,-0.975098,-0.416519,0.166989,-0.0143348
10038273572,1,0,-1,-2,-8,1,0,0,10038258588,0.123535,-0.168945,0.90918,10038258588,-14.75,-130.375,172.125,10038258588,0.205444,-0.0830688,-0.0102539,-0.975098,-0.416519,0.166989,-0.0143348
10038273572,-5,-1,-1,1,-5,-23,-2,-2,10038279741,0.111328,-0.188965,0.94873,10038279741,4.3125,-123.125,156.375,10038279741,0.201477,-0.0669556,-0.0410767,-0.976379,-0.403034,0.147838,0.0538458
10038287779,-2,0,-3,-7,15,24,3,-1,10038279741,0.111328,-0.188965,0.94873,10038279741,4.3125,-123.125,156.375,10038279741,0.201477,-0.0669556,-0.0410767,-0.976379,-0.403034,0.147838,0.0538458
10038287779,0,2,4,0,1,-8,1,-1,10038279741,0.111328,-0.188965,0.94873,10038279741,4.3125,-123.125,156.375,10038279741,0.201477,-0.0669556,-0.0410767,-0.976379,-0.403034,0.147838,0.0538458
10038288526,0,-3,-3,2,2,7,4,1,10038279741,0.111328,-0.188965,0.94873,10038279741,4.3125,-123.125,156.375,10038279741,0.201477,-0.0669556,-0.0410767,-0.976379,-0.403034,0.147838,0.0538458
10038288526,-2,-1,-1,-4,-4,-2,-1,-2,10038294869,0.106934,-0.152344,0.92627,10038294869,27.9375,-115.75,143.312,10038294869,0.193481,-0.0518188,-0.0691528,-0.977295,-0.383414,0.128397,0.116331
10038310414,-1,-4,-2,-3,-13,-17,-5,-1,10038294869,0.106934,-0.152344,0.92627,10038294869,27.9375,-115.75,143.312,10038294869,0.193481,-0.0518188,-0.0691528,-0.977295,-0.383414,0.128397,0.116331
10038310414,-1,-1,1,-2,14,6,0,0,10038294869,0.106934,-0.152344,0.92627,10038294869,27.9375,-115.75,143.312,10038294869,0.193481,-0.0518188,-0.0691528,-0.977295,-0.383414,0.128397,0.116331
10038311067,-2,-1,-1,-1,-3,4,0,0,10038294869,0.106934,-0.152344,0.92627,10038294869,27.9375,-115.75,143.312,10038294869,0.193481,-0.0518188,-0.0691528,-0.977295,-0.383414,0.128397,0.116331
10038311067,0,-1,-1,0,-2,13,1,0,10038317330,0.111816,-0.0722656,0.921387,10038317330,33.875,-105.375,131.312,10038317330,0.184326,-0.0380859,-0.0947266,-0.9776,-0.363244,0.109606,0.173065
10038332955,-1,0,-2,1,-2,-16,-2,-3,10038317330,0.111816,-0.0722656,0.921387,10038317330,33.875,-105.375,131.312,10038317330,0.184326,-0.0380859,-0.0947266,-0.9776,-0.363244,0.109606,0.173065
10038332955,-2,-4,-4,-3,-7,-14,-7,-4,10038317330,0.111816,-0.0722656,0.921387,10038317330,33.875,-105.375,131.312,10038317330,0.184326,-0.0380859,-0.0947266,-0.9776,-0.363244,0.109606,0.173065
10038333632,-2,-1,-1,2,-1,-14,-1,1,10038317330,0.111816,-0.0722656,0.921387,10038317330,33.875,-105.375,131.312,10038317330,0.184326,-0.0380859,-0.0947266,-0.9776,-0.363244,0.109606,0.173065
10038333632,-2,1,-1,4,4,11,0,0,10038339779,0.078125,-0.0141602,0.972656,10038339779,23.4375,-92.4375,117.375,10038339779,0.177002,-0.026123,-0.117493,-0.976868,-0.348131,0.0927634,0.223099
10038347933,-1,1,0,2,-4,4,-5,0,10038339779,0.078125,-0.0141602,0.972656,10038339779,23.4375,-92.4375,117.375,10038339779,0.177002,-0.026123,-0.117493,-0.976868,-0.348131,0.0927634,0.223099
10038347933,1,-4,-3,0,5,-5,1,-1,10038339779,0.078125,-0.0141602,0.972656,10038339779,23.4375,-92.4375,117.375,10038339779,0.177002,-0.026123,-0.117493,-0.976868,-0.348131,0.0927634,0.223099
10038348517,-2,1,-1,0,-4,5,-1,-1,10038339779,0.078125,-0.0141602,0.972656,10038339779,23.4375,-92.4375,117.375,10038339779,0.177002,-0.026123,-0.117493,-0.976868,-0.348131,0.0927634,0.223099
10038348517,0,-3,0,-2,12,-1,-2,-3,10038354876,0.0292969,-0.0302734,0.981445,10038354876,10.5,-84.625,104.75,10038354876,0.171997,-0.0149536,-0.137878,-0.975281,-0.338788,0.0766724,0.267762
10038370449,-3,2,2,-1,-11,0,2,0,10038354876,0.0292969,-0.0302734,0.981445,10038354876,10.5,-84.625,104.75,10038354876,0.171997,-0.0149536,-0.137878,-0.975281,-0.338788,0.0766724,0.267762
10038370449,-1,0,-1,-2,-1,0,-1,1,10038354876,0.0292969,-0.0302734,0.981445,10038354876,10.5,-84.625,104.75,10038354876,0.171997,-0.0149536,-0.137878,-0.975281,-0.338788,0.0766724,0.267762
10038371093,-2,1,0,-2,0,3,-2,-3,10038354876,0.0292969,-0.0302734,0.981445,10038354876,10.5,-84.625,104.75,10038354876,0.171997,-0.0149536,-0.137878,-0.975281,-0.338788,0.0766724,0.267762
10038371093,-2,-3,-2,-2,-1,-10,-3,-1,10038377318,0.0419922,-0.0610352,1.02393,10038377318,-0.9375,-79.0625,92,10038377318,0.166504,-0.00354004,-0.155884,-0.973633,-0.32962,0.0588379,0.307726
10038392967,-2,-2,-2,-4,5,0,2,-1,10038377318,0.0419922,-0.0610352,1.02393,10038377318,-0.9375,-79.0625,92,10038377318,0.166504,-0.00354004,-0.155884,-0.973633,-0.32962,0.0588379,0.307726
10038392967,0,0,-1,-1,-5,7,-2,0,10038377318,0.0419922,-0.0610352,1.02393,10038377318,-0.9375,-79.0625,92,10038377318,0.166504,-0.00354004,-0.155884,-0.973633,-0.32962,0.0588379,0.307726
10038393714,1,1,2,0,0,1,2,0,10038377318,0.0419922,-0.0610352,1.02393,10038377318,-0.9375,-79.0625,92,10038377318,0.166504,-0.00354004,-0.155884,-0.973633,-0.32962,0.0588379,0.307726
10038393714,-1,0,0,-1,-5,-12,-3,-3,10038399814,0.0395508,-0.0756836,1.05273,10038399814,-4.0625,-73.5,76.8125,10038399814,0.161804,0.00726318,-0.171082,-0.971863,-0.322836,0.0412575,0.341787
10038407963,1,-2,-1,0,-1,6,1,-1,10038399814,0.0395508,-0.0756836,1.05273,10038399814,-4.0625,-73.5,76.8125,10038399814,0.161804,0.00726318,-0.171082,-0.971863,-0.322836,0.0412575,0.341787
10038407963,-4,1,-1,-1,-9,-13,-2,-1,10038399814,0.0395508,-0.0756836,1.05273,10038399814,-4.0625,-73.5,76.8125,10038399814,0.161804,0.00726318,-0.171082,-0.971863,-0.322836,0.0412575,0.341787
10038408631,-1,-3,-3,2,1,7,0,-1,10038399814,0.0395508,-0.0756836,1.05273,10038399814,-4.0625,-73.5,76.8125,10038399814,0.161804,0.00726318,-0.171082,-0.971863,-0.322836,0.0412575,0.341787
10038408631,0,-1,-1,1,12,2,6,2,10038414808,0.0390625,-0.0917969,1.04492,10038414808,0.375,-68.125,64.625,10038414808,0.156799,0.0172119,-0.183899,-0.970215,-0.315908,0.0242743,0.370785
10038430455,-2,-3,1,0,-5,7,1,0,10038414808,0.0390625,-0.0917969,1.04492,10038414808,0.375,-68.125,64.625,10038414808,0.156799,0.0172119,-0.183899,-0.970215,-0.315908,0.0242743,0.370785
10038430455,-1,-1,-1,0,3,2,0,-1,10038414808,0.0390625,-0.0917969,1.04492,10038414808,0.375,-68.125,64.625,10038414808,0.156799,0.0172119,-0.183899,-0.970215,-0.315908,0.0242743,0.370785
10038431107,0,-4,0,-4,-1,-8,-2,0,10038414808,0.0390625,-0.0917969,1.04492,10038414808,0.375,-68.125,64.625,10038414808,0.156799,0.0172119,-0.183899,-0.970215,-0.315908,0.0242743,0.370785
10038431107,-3,-2,-1,0,-4,7,-3,-1,10038437384,0.0512695,-0.0952148,1.08105,10038437384,5.625,-56.625,51,10038437384,0.151184,0.0253906,-0.194092,-0.968933,-0.307676,0.00948369,0.393928
10038452874,0,1,0,0,-4,-16,-3,-1,10038437384,0.0512695,-0.0952148,1.08105,10038437384,5.625,-56.625,51,10038437384,0.151184,0.0253906,-0.194092,-0.968933,-0.307676,0.00948369,0.393928
10038452874,1,-1,-1,-1,20,8,0,-1,10038437384,0.0512695,-0.0952148,1.08105,10038437384,5.625,-56.625,51,10038437384,0.151184,0.0253906,-0.194092,-0.968933,-0.307676,0.00948369,0.393928
10038453636,-2,0,-2,1,-30,-13,-3,-1,10038437384,0.0512695,-0.0952148,1.08105,10038437384,5.625,-56.625,51,10038437384,0.151184,0.0253906,-0.194092,-0.968933,-0.307676,0.00948369,0.393928
10038453636,-1,-2,-2,-3,-5,-2,-1,-1,10038459901,-0.00488281,-0.0102539,1.14795,10038459901,8.5,-48.5625,37.375,10038459901,0.144409,0.0314331,-0.201904,-0.968201,-0.29666,-0.00255344,0.411568
10038467903,-2,-2,-1,-1,7,18,0,1,10038459901,-0.00488281,-0.0102539,1.14795,10038459901,8.5,-48.5625,37.375,10038459901,0.144409,0.0314331,-0.201904,-0.968201,-0.29666,-0.00255344,0.411568
10038467903,-3,1,1,-3,-3,-9,-2,-3,10038459901,-0.00488281,-0.0102539,1.14795,10038459901,8.5,-48.5625,37.375,10038459901,0.144409,0.0314331,-0.201904,-0.968201,-0.29666,-0.00255344,0.411568
10038468709,0,2,2,-5,7,-8,-8,-1,10038459901,-0.00488281,-0.0102539,1.14795,10038459901,8.5,-48.5625,37.375,10038459901,0.144409,0.0314331,-0.201904,-0.968201,-0.29666,-0.00255344,0.411568
10038468709,1,0,0,-2,-10,-36,-5,1,10038474826,-0.0595703,0.0205078,1.15576,10038474826,-4.0625,-45.375,32.75,10038474826,0.139648,0.0366211,-0.20874,-0.967285,-0.289497,-0.0125459,0.426933
10038490329,0,-2,-3,3,7,24,0,-3,10038474826,-0.0595703,0.0205078,1.15576,10038474826,-4.0625,-45.375,32.75,10038474826,0.139648,0.0366211,-0.20874,-0.967285,-0.289497,-0.0125459,0.426933
10038490329,-4,0,-3,-1,-8,-31,-4,-3,10038474826,-0.0595703,0.0205078,1.15576,10038474826,-4.0625,-45.375,32.75,10038474826,0.139648,0.0366211,-0.20874,-0.967285,-0.289497,-0.0125459,0.426933
10038491080,0,0,-5,-2,7,20,0,0,10038474826,-0.0595703,0.0205078,1.15576,10038474826,-4.0625,-45.375,32.75,10038474826,0.139648,0.0366211,-0.20874,-0.967285,-0.289497,-0.0125459,0.426933
10038491080,-1,-2,-4,-2,-7,6,0,1,10038497148,-0.0390625,-0.0415039,1.15039,10038497148,-25.125,-44.4375,21.0625,10038497148,0.139099,0.0429688,-0.21344,-0.966064,-0.291281,-0.0236448,0.438371
10038512744,0,-1,-1,-5,4,4,0,-1,10038497148,-0.0390625,-0.0415039,1.15039,10038497148,-25.125,-44.4375,21.0625,10038497148,0.139099,0.0429688,-0.21344,-0.966064,-0.291281,-0.0236448,0.438371
10038512744,0,-1,3,-3,-2,-5,-3,0,10038497148,-0.0390625,-0.0415039,1.15039,10038497148,-25.125,-44.4375,21.0625,10038497148,0.139099,0.0429688,-0.21344,-0.966064,-0.291281,-0.0236448,0.438371
10038513577,-1,-1,-1,3,2,3,1,-1,10038497148,-0.0390625,-0.0415039,1.15039,10038497148,-25.125,-44.4375,21.0625,10038497148,0.139099,0.0429688,-0.21344,-0.966064,-0.291281,-0.0236448,0.438371
10038513577,-2,-1,-1,0,3,6,-3,-3,10038519677,0.0761719,-0.22168,1.11475,10038519677,-18.125,-34,8.9375,10038519677,0.139526,0.0492554,-0.215576,-0.965271,-0.295036,-0.0349395,0.444694
10038527761,-1,-1,-2,2,0,0,1,0,10038519677,0.0761719,-0.22168,1.11475,10038519677,-18.125,-34,8.9375,10038519677,0.139526,0.0492554,-0.215576,-0.965271,-0.295036,-0.0349395,0.444694
10038527761,0,0,-1,-2,-13,-1,2,-1,10038519677,0.0761719,-0.22168,1.11475,10038519677,-18.125,-34,8.9375,10038519677,0.139526,0.0492554,-0.215576,-0.965271,-0.295036,-0.0349395,0.444694
10038528582,1,-3,-4,-4,3,-7,1,0,10038519677,0.0761719,-0.22168,1.11475,10038519677,-18.125,-34,8.9375,10038519677,0.139526,0.0492554,-0.215576,-0.965271,-0.295036,-0.0349395,0.444694
10038528582,-3,-1,0,-4,1,21,-1,-2,10038534642,0.125488,-0.277344,1.125,10038534642,18.6875,-21.5625,1.8125,10038534642,0.134766,0.0529175,-0.216431,-0.965515,-0.287353,-0.0438645,0.447388
10038550245,-1,-1,-4,-3,-12,-37,-2,-2,10038534642,0.125488,-0.277344,1.125,10038534642,18.6875,-21.5625,1.8125,10038534642,0.134766,0.0529175,-0.216431,-0.965515,-0.287353,-0.0438645,0.447388
10038550245,0,-2,-1,0,9,44,1,-2,10038534642,0.125488,-0.277344,1.125,10038534642,18.6875,-21.5625,1.8125,10038534642,0.134766,0.0529175,-0.216431,-0.965515,-0.287353,-0.0438645,0.447388
10038551035,-2,-1,4,3,-2,-31,-4,-1,10038534642,0.125488,-0.277344,1.125,10038534642,18.6875,-21.5625,1.8125,10038534642,0.134766,0.0529175,-0.216431,-0.965515,-0.287353,-0.0438645,0.447388
10038551035,1,2,3,1,8,16,0,-1,10038557192,0.118164,-0.152344,1.09961,10038557192,48.5625,-9.1875,-9.25,10038557192,0.124268,0.0531616,-0.215454,-0.967163,-0.266754,-0.049304,0.445036
10038572728,-2,-1,-3,-3,-3,-1,-2,0,10038557192,0.118164,-0.152344,1.09961,10038557192,48.5625,-9.1875,-9.25,10038557192,0.124268,0.0531616,-0.215454,-0.967163,-0.266754,-0.049304,0.445036
10038572728,-2,0,-3,0,-5,-5,-1,-2,10038557192,0.118164,-0.152344,1.09961,10038557192,48.5625,-9.1875,-9.25,10038557192,0.124268,0.0531616,-0.215454,-0.967163,-0.266754,-0.049304,0.445036
10038573506,1,-3,-2,0,2,13,6,-1,10038557192,0.118164,-0.152344,1.09961,10038557192,48.5625,-9.1875,-9.25,10038557192,0.124268,0.0531616,-0.215454,-0.967163,-0.266754,-0.049304,0.445036
10038573506,-2,-1,2,0,-5,-8,-1,0,10038579838,0.0615234,-0.0419922,1.07373,10038579838,43.625,3.9375,-17.0625,10038579838,0.114197,0.0507812,-0.212891,-0.969055,-0.245714,-0.0498174,0.438664
10038588033,0,-1,-2,1,-4,-2,-2,-3,10038579838,0.0615234,-0.0419922,1.07373,10038579838,43.625,3.9375,-17.0625,10038579838,0.114197,0.0507812,-0.212891,-0.969055,-0.245714,-0.0498174,0.438664
10038588033,-2,-1,-4,2,-8,-26,-6,-1,10038579838,0.0615234,-0.0419922,1.07373,10038579838,43.625,3.9375,-17.0625,10038579838,0.114197,0.0507812,-0.212891,-0.969055,-0.245714,-0.0498174,0.438664
10038588659,-4,0,-1,-4,8,10,-2,-3,10038579838,0.0615234,-0.0419922,1.07373,10038579838,43.625,3.9375,-17.0625,10038579838,0.114197,0.0507812,-0.212891,-0.969055,-0.245714,-0.0498174,0.438664
10038588659,1,0,0,-1,-1,-10,1,0,10038594873,0.0419922,-0.00195312,1.08447,10038594873,16,9.875,-23.5,10038594873,0.108704,0.0482178,-0.208862,-0.970703,-0.233566,-0.0482208,0.42954
10038610464,-1,-3,1,0,-8,1,0,-1,10038594873,0.0419922,-0.00195312,1.08447,10038594873,16,9.875,-23.5,10038594873,0.108704,0.0482178,-0.208862,-0.970703,-0.233566,-0.0482208,0.42954
10038610464,1,-3,0,0,10,15,0,-1,10038594873,0.0419922,-0.00195312,1.08447,10038594873,16,9.875,-23.5,10038594873,0.108704,0.0482178,-0.208862,-0.970703,-0.233566,-0.0482208,0.42954
10038611104,-1,-3,-2,2,-2,-11,0,0,10038594873,0.0419922,-0.00195312,1.08447,10038594873,16,9.875,-23.5,10038594873,0.108704,0.0482178,-0.208862,-0.970703,-0.233566,-0.0482208,0.42954
10038611104,-3,-2,-4,-1,-10,-15,-5,-3,10038617382,0.0722656,-0.0551758,1.09473,10038617382,-8.625,14.6875,-32.625,10038617382,0.107971,0.0463867,-0.202942,-0.972168,-0.231056,-0.0463842,0.417018
10038632778,0,1,4,-1,12,9,0,1,10038617382,0.0722656,-0.0551758,1.09473,10038617382,-8.625,14.6875,-32.625,10038617382,0.107971,0.0463867,-0.202942,-0.972168,-0.231056,-0.0463842,0.417018
10038632778,-1,-3,0,-1,-2,2,3,1,10038617382,0.0722656,-0.0551758,1.09473,10038617382,-8.625,14.6875,-32.625,10038617382,0.107971,0.0463867,-0.202942,-0.972168,-0.231056,-0.0463842,0.417018
10038633560,-2,0,-3,-3,-7,-10,-2,-1,10038617382,0.0722656,-0.0551758,1.09473,10038617382,-8.625,14.6875,-32.625,10038617382,0.107971,0.0463867,-0.202942,-0.972168,-0.231056,-0.0463842,0.417018
10038633560,1,0,-3,1,-1,3,0,-1,10038639777,0.0922852,-0.128418,1.10742,10038639777,-17.125,19.875,-42,10038639777,0.109558,0.0446167,-0.195251,-0.973633,-0.233091,-0.0441121,0.401023
10038647865,-1,-1,5,-3,-1,-4,-4,-3,10038639777,0.0922852,-0.128418,1.10742,10038639777,-17.125,19.875,-42,10038639777,0.109558,0.0446167,-0.195251,-0.973633,-0.233091,-0.0441121,0.401023
10038647865,-1,0,1,-1,4,-12,-2,-1,10038639777,0.0922852,-0.128418,1.10742,10038639777,-17.125,19.875,-42,10038639777,0.109558,0.0446167,-0.195251,-0.973633,-0.233091,-0.0441121,0.401023
10038648638,0,-2,-3,2,-6,17,-1,0,10038639777,0.0922852,-0.128418,1.10742,10038639777,-17.125,19.875,-42,10038639777,0.109558,0.0446167,-0.195251,-0.973633,-0.233091,-0.0441121,0.401023
10038648638,-2,-2,-2,-1,-2,0,-1,-1,10038654857,0.115234,-0.184082,1.10059,10038654857,-13.875,25.25,-52.3125,10038654857,0.111267,0.0424194,-0.185669,-0.975403,-0.235174,-0.0414462,0.381121
10038670487,-1,-1,-1,2,2,-7,0,-1,10038654857,0.115234,-0.184082,1.10059,10038654857,-13.875,25.25,-52.3125,10038654857,0.111267,0.0424194,-0.185669,-0.975403,-0.235174,-0.0414462,0.381121
10038670487,-1,0,-2,-5,-12,8,-1,1,10038654857,0.115234,-0.184082,1.10059,10038654857,-13.875,25.25,-52.3125,10038654857,0.111267,0.0424194,-0.185669,-0.975403,-0.235174,-0.0414462,0.381121
10038671039,-3,-1,-3,-8,4,1,-3,-1,10038654857,0.115234,-0.184082,1.10059,10038654857,-13.875,25.25,-52.3125,10038654857,0.111267,0.0424194,-0.185669,-0.975403,-0.235174,-0.0414462,0.381121
10038671039,1,-1,0,-2,17,10,1,0,10038677352,0.109863,-0.199707,1.07275,10038677352,-11.4375,32,-63.3125,10038677352,0.112915,0.0393066,-0.174072,-0.977478,-0.2368,-0.0375408,0.356957
10038692994,0,0,-2,2,-9,-7,-2,-1,10038677352,0.109863,-0.199707,1.07275,10038677352,-11.4375,32,-63.3125,10038677352,0.112915,0.0393066,-0.174072,-0.977478,-0.2368,-0.0375408,0.356957
10038692994,0,-1,2,-7,6,-2,0,-2,10038677352,0.109863,-0.199707,1.07275,10038677352,-11.4375,32,-63.3125,10038677352,0.112915,0.0393066,-0.174072,-0.977478,-0.2368,-0.0375408,0.356957
10038693572,0,-3,-2,1,-19,-13,-3,-2,10038677352,0.109863,-0.199707,1.07275,10038677352,-11.4375,32,-63.3125,10038677352,0.112915,0.0393066,-0.174072,-0.977478,-0.2368,-0.0375408,0.356957
10038693572,-3,-5,-2,-3,1,15,1,-2,10038699852,0.115234,-0.156738,1.06445,10038699852,-3.25,39.6875,-69.3125,10038699852,0.112854,0.034729,-0.161316,-0.979858,-0.234629,-0.031654,0.330095
10038707987,0,-3,-3,-2,-3,-19,-5,1,10038699852,0.115234,-0.156738,1.06445,10038699852,-3.25,39.6875,-69.3125,10038699852,0.112854,0.034729,-0.161316,-0.979858,-0.234629,-0.031654,0.330095
10038707987,-1,3,-2,4,4,-1,-4,0,10038699852,0.115234,-0.156738,1.06445,10038699852,-3.25,39.6875,-69.3125,10038699852,0.112854,0.034729,-0.161316,-0.979858,-0.234629,-0.031654,0.330095
10038708588,0,0,1,-1,0,-3,-3,-1,10038699852,0.115234,-0.156738,1.06445,10038699852,-3.25,39.6875,-69.3125,10038699852,0.112854,0.034729,-0.161316,-0.979858,-0.234629,-0.031654,0.330095
10038708588,1,0,0,0,-5,2,2,-3,10038714697,0.112305,-0.137207,1.06299,10038714697,2.0625,48.5625,-74.875,10038714697,0.111938,0.0287476,-0.147461,-0.9823,-0.230491,-0.0234665,0.300732
10038730231,-5,-3,-8,-2,-1,8,-1,-1,10038714697,0.112305,-0.137207,1.06299,10038714697,2.0625,48.5625,-74.875,10038714697,0.111938,0.0287476,-0.147461,-0.9823,-0.230491,-0.0234665,0.300732
10038730231,-1,1,-2,0,1,-9,0,-1,10038714697,0.112305,-0.137207,1.06299,10038714697,2.0625,48.5625,-74.875,10038714697,0.111938,0.0287476,-0.147461,-0.9823,-0.230491,-0.0234665,0.300732
10038731013,-1,4,5,-2,5,1,0,-1,10038714697,0.112305,-0.137207,1.06299,10038714697,2.0625,48.5625,-74.875,10038714697,0.111938,0.0287476,-0.147461,-0.9823,-0.230491,-0.0234665,0.300732
10038731013,2,0,3,-1,-5,-3,1,2,10038737349,0.128906,-0.153809,1.06006,10038737349,-2.0625,53.25,-81.125,10038737349,0.111938,0.0224609,-0.132324,-0.984619,-0.228382,-0.0146071,0.268862
10038752784,-2,-4,-2,-4,-9,1,2,-1,10038737349,0.128906,-0.153809,1.06006,10038737349,-2.0625,53.25,-81.125,10038737349,0.111938,0.0224609,-0.132324,-0.984619,-0.228382,-0.0146071,0.268862
10038752784,-3,-1,-2,1,6,2,2,0,10038737349,0.128906,-0.153809,1.06006,10038737349,-2.0625,53.25,-81.125,10038737349,0.111938,0.0224609,-0.132324,-0.984619,-0.228382,-0.0146071,0.268862
10038753650,-1,-4,-7,-3,10,2,1,-2,10038737349,0.128906,-0.153809,1.06006,10038737349,-2.0625,53.25,-81.125,10038737349,0.111938,0.0224609,-0.132324,-0.984619,-0.228382,-0.0146071,0.268862
10038753650,0,-1,0,0,-2,-2,-1,2,10038759903,0.176758,-0.212402,1.03125,10038759903,-18.5,59.5,-92.9375,10038759903,0.115479,0.0164795,-0.114868,-0.986511,-0.233755,-0.00598483,0.232538
10038767986,-1,1,6,-3,31,1,1,0,10038759903,0.176758,-0.212402,1.03125,10038759903,-18.5,59.5,-92.9375,10038759903,0.115479,0.0164795,-0.114868,-0.986511,-0.233755,-0.00598483,0.232538
10038767986,-1,-3,-4,1,-10,2,-1,-2,10038759903,0.176758,-0.212402,1.03125,10038759903,-18.5,59.5,-92.9375,10038759903,0.115479,0.0164795,-0.114868,-0.986511,-0.233755,-0.00598483,0.232538
10038768548,-1,-3,0,-2,5,-1,0,-1,10038759903,0.176758,-0.212402,1.03125,10038759903,-18.5,59.5,-92.9375,10038759903,0.115479,0.0164795,-0.114868,-0.986511,-0.233755,-0.00598483,0.232538
10038768548,-2,0,-5,0,-10,-1,0,1,10038774693,0.187012,-0.218262,1.01025,10038774693,-27.875,71.875,-104.625,10038774693,0.121216,0.00732422,-0.0952148,-0.988037,-0.243329,0.00861,0.191095
10038790209,1,2,-5,-3,-12,2,-2,0,10038774693,0.187012,-0.218262,1.01025,10038774693,-27.875,71.875,-104.625,10038774693,0.121216,0.00732422,-0.0952148,-0.988037,-0.243329,0.00861,0.191095
10038790209,-3,-3,1,-1,1,0,0,1,10038774693,0.187012,-0.218262,1.01025,10038774693,-27.875,71.875,-104.625,10038774693,0.121216,0.00732422,-0.0952148,-0.988037,-0.243329,0.00861,0.191095
10038791017,0,-1,4,-2,1,3,0,-2,10038774693,0.187012,-0.218262,1.01025,10038774693,-27.875,71.875,-104.625,10038774693,0.121216,0.00732422,-0.0952148,-0.988037,-0.243329,0.00861,0.191095
10038791017,-1,0,0,-2,-8,-10,-7,-4,10038797139,0.164551,-0.205566,0.984863,10038797139,-20.0625,86.625,-114.062,10038797139,0.125732,-0.00427246,-0.0736084,-0.989319,-0.250863,0.0269668,0.145132
10038812770,6,1,-3,-3,-1,0,1,3,10038797139,0.164551,-0.205566,0.984863,10038797139,-20.0625,86.625,-114.062,10038797139,0.125732,-0.00427246,-0.0736084,-0.989319,-0.250863,0.0269668,0.145132
10038812770,-1,-1,0,-2,2,1,7,4,10038797139,0.164551,-0.205566,0.984863,10038797139,-20.0625,86.625,-114.062,10038797139,0.125732,-0.00427246,-0.0736084,-0.989319,-0.250863,0.0269668,0.145132
10038813592,-10,-3,-4,-6,-12,-7,-5,-6,10038797139,0.164551,-0.205566,0.984863,10038797139,-20.0625,86.625,-114.062,10038797139,0.125732,-0.00427246,-0.0736084,-0.989319,-0.250863,0.0269668,0.145132
10038813592,-4,-3,-3,-2,4,3,4,-7,10038819686,0.166992,-0.180664,0.994141,10038819686,-13.125,96.6875,-118.5,10038819686,0.129028,-0.0175781,-0.0509644,-0.990173,-0.256836,0.0479809,0.0966524
10038827755,1,2,4,5,4,0,2,-3,10038819686,0.166992,-0.180664,0.994141,10038819686,-13.125,96.6875,-118.5,10038819686,0.129028,-0.0175781,-0.0509644,-0.990173,-0.256836,0.0479809,0.0966524
10038827755,5,1,0,-2,-4,-3,-20,-2,10038819686,0.166992,-0.180664,0.994141,10038819686,-13.125,96.6875,-118.5,10038819686,0.129028,-0.0175781,-0.0509644,-0.990173,-0.256836,0.0479809,0.0966524
10038828502,4,-1,-1,2,-1,-3,0,10,10038819686,0.166992,-0.180664,0.994141,10038819686,-13.125,96.6875,-118.5,10038819686,0.129028,-0.0175781,-0.0509644,-0.990173,-0.256836,0.0479809,0.0966524
10038828502,-3,-1,-4,2,2,-3,-3,-11,10038834655,0.226562,-0.214844,0.989258,10038834655,-18.375,106.375,-126.75,10038834655,0.133301,-0.0320435,-0.0266113,-0.990234,-0.266076,0.0706144,0.0442849
10038850284,-3,-4,-2,-2,-6,0,-1,-2,10038834655,0.226562,-0.214844,0.989258,10038834655,-18.375,106.375,-126.75,10038834655,0.133301,-0.0320435,-0.0266113,-0.990234,-0.266076,0.0706144,0.0442849
10038850284,0,-3,-1,0,-5,3,4,-2,10038834655,0.226562,-0.214844,0.989258,10038834655,-18.375,106.375,-126.75,10038834655,0.133301,-0.0320435,-0.0266113,-0.990234,-0.266076,0.0706144,0.0442849
10038851059,3,0,0,-1,5,3,3,8,10038834655,0.226562,-0.214844,0.989258,10038834655,-18.375,106.375,-126.75,10038834655,0.133301,-0.0320435,-0.0266113,-0.990234,-0.266076,0.0706144,0.0442849
10038851059,-1,-1,0,-2,-1,-11,-6,-1,10038857151,0.284668,-0.279785,1.01074,10038857151,-35.0625,120.938,-146.875,10038857151,0.140625,-0.0482178,0.00152588,-0.988892,-0.28331,0.0950783,-0.0166551
10038872774,0,0,-1,-1,-6,8,4,-2,10038857151,0.284668,-0.279785,1.01074,10038857151,-35.0625,120.938,-146.875,10038857151,0.140625,-0.0482178,0.00152588,-0.988892,-0.28331,0.0950783,-0.0166551
10038872774,-4,-1,0,1,-2,-1,0,-2,10038857151,0.284668,-0.279785,1.01074,10038857151,-35.0625,120.938,-146.875,10038857151,0.140625,-0.0482178,0.00152588,-0.988892,-0.28331,0.0950783,-0.0166551
10038873572,1,2,-1,4,1,-2,-1,-5,10038857151,0.284668,-0.279785,1.01074,10038857151,-35.0625,120.938,-146.875,10038857151,0.140625,-0.0482178,0.00152588,-0.988892,-0.28331,0.0950783,-0.0166551
10038873572,0,0,-1,-1,1,9,-1,0,10038879576,0.217285,-0.310547,0.997559,10038879576,-53.25,133.812,-164.25,10038879576,0.151062,-0.0662231,0.0328369,-0.985779,-0.309308,0.120937,-0.085475
10038896162,-1,-1,-1,0,-2,-3,-10,-6,10038879576,0.217285,-0.310547,0.997559,10038879576,-53.25,133.812,-164.25,10038879576,0.151062,-0.0662231,0.0328369,-0.985779,-0.309308,0.120937,-0.085475
10038896162,-2,-2,1,-2,-6,-10,1,-1,10038879576,0.217285,-0.310547,0.997559,10038879576,-53.25,133.812,-164.25,10038879576,0.151062,-0.0662231,0.0328369,-0.985779,-0.309308,0.120937,-0.085475
10038896724,-1,-1,-1,2,4,9,1,-3,10038879576,0.217285,-0.310547,0.997559,10038879576,-53.25,133.812,-164.25,10038879576,0.151062,-0.0662231,0.0328369,-0.985779,-0.309308,0.120937,-0.085475
10038896724,-1,0,-1,-2,4,1,3,3,10038897630,0.103027,-0.298828,0.952637,10038897630,-58.875,137.312,-175.562,10038897630,0.162231,-0.0847778,0.0661011,-0.980896,-0.339467,0.145381,-0.159535
10038910555,-2,1,2,-1,-10,-4,3,2,10038897630,0.103027,-0.298828,0.952637,10038897630,-58.875,137.312,-175.562,10038897630,0.162231,-0.0847778,0.0661011,-0.980896,-0.339467,0.145381,-0.159535
10038910555,0,-4,-6,-1,-10,10,0,-3,10038897630,0.103027,-0.298828,0.952637,10038897630,-58.875,137.312,-175.562,10038897630,0.162231,-0.0847778,0.0661011,-0.980896,-0.339467,0.145381,-0.159535
10038911067,-1,-2,-1,4,-5,-23,-7,-3,10038897630,0.103027,-0.298828,0.952637,10038897630,-58.875,137.312,-175.562,10038897630,0.162231,-0.0847778,0.0661011,-0.980896,-0.339467,0.145381,-0.159535
10038911067,-1,0,3,0,29,12,-3,1,10038917429,-0.0322266,-0.381348,0.853027,10038917429,-63,131.938,-178.562,10038917429,0.174194,-0.1026,0.0994263,-0.974304,-0.373479,0.16605,-0.234841
10038932918,-2,-1,-1,0,13,-15,-3,-3,10038917429,-0.0322266,-0.381348,0.853027,10038917429,-63,131.938,-178.562,10038917429,0.174194,-0.1026,0.0994263,-0.974304,-0.373479,0.16605,-0.234841
10038932918,-1,-1,0,-1,9,17,3,0,10038917429,-0.0322266,-0.381348,0.853027,10038917429,-63,131.938,-178.562,10038917429,0.174194,-0.1026,0.0994263,-0.974304,-0.373479,0.16605,-0.234841
10038933630,-1,-2,-5,-4,-12,0,1,-1,10038917429,-0.0322266,-0.381348,0.853027,10038917429,-63,131.938,-178.562,10038917429,0.174194,-0.1026,0.0994263,-0.974304,-0.373479,0.16605,-0.234841
10038933630,-3,1,-2,-2,-9,-2,-1,2,10038939899,-0.0776367,-0.33252,0.930176,10038939899,-60.3125,123.938,-174.25,10038939899,0.18512,-0.119019,0.131714,-0.966553,-0.406904,0.182318,-0.30859
10038947259,-1,1,-2,-2,-5,0,0,0,10038939899,-0.0776367,-0.33252,0.930176,10038939899,-60.3125,123.938,-174.25,10038939899,0.18512,-0.119019,0.131714,-0.966553,-0.406904,0.182318,-0.30859
10038947259,0,-1,-2,-3,0,12,-1,-2,10038939899,-0.0776367,-0.33252,0.930176,10038939899,-60.3125,123.938,-174.25,10038939899,0.18512,-0.119019,0.131714,-0.966553,-0.406904,0.182318,-0.30859
10038955371,-1,-2,-1,-7,-2,6,-5,-2,10038939899,-0.0776367,-0.33252,0.930176,10038939899,-60.3125,123.938,-174.25,10038939899,0.18512,-0.119019,0.131714,-0.966553,-0.406904,0.182318,-0.30859
10038955371,-2,-1,-1,-1,-8,-7,-2,0,10038956175,-0.0893555,-0.208008,0.931152,10038956175,-49.4375,119.5,-186.375,10038956175,0.193909,-0.133789,0.165894,-0.957642,-0.43747,0.193105,-0.38614
10038970439,-4,0,0,-2,-3,-3,-1,-1,10038956175,-0.0893555,-0.208008,0.931152,10038956175,-49.4375,119.5,-186.375,10038956175,0.193909,-0.133789,0.165894,-0.957642,-0.43747,0.193105,-0.38614
10038970439,-3,1,-1,0,6,-12,-1,1,10038956175,-0.0893555,-0.208008,0.931152,10038956175,-49.4375,119.5,-186.375,10038956175,0.193909,-0.133789,0.165894,-0.957642,-0.43747,0.193105,-0.38614
10038971121,-2,-1,1,-9,-8,-2,1,-3,10038956175,-0.0893555,-0.208008,0.931152,10038956175,-49.4375,119.5,-186.375,10038956175,0.193909,-0.133789,0.165894,-0.957642,-0.43747,0.193105,-0.38614
10038971121,-1,-2,-1,2,0,1,-1,0,10038977252,-0.0878906,-0.185059,0.956543,10038977252,-51.875,118.688,-184.438,10038977252,0.202576,-0.148254,0.199402,-0.947205,-0.469035,0.201426,-0.463241
10038992848,-2,-4,0,1,-6,-17,-4,-2,10038977252,-0.0878906,-0.185059,0.956543,10038977252,-51.875,118.688,-184.438,10038977252,0.202576,-0.148254,0.199402,-0.947205,-0.469035,0.201426,-0.463241
10038992848,1,-1,-3,-3,-1,-4,1,0,10038977252,-0.0878906,-0.185059,0.956543,10038977252,-51.875,118.688,-184.438,10038977252,0.202576,-0.148254,0.199402,-0.947205,-0.469035,0.201426,-0.463241
10038993618,-1,1,3,2,9,3,-3,-2,10038977252,-0.0878906,-0.185059,0.956543,10038977252,-51.875,118.688,-184.438,10038977252,0.202576,-0.148254,0.199402,-0.947205,-0.469035,0.201426,-0.463241
10038993618,0,-1,-2,-1,3,4,2,1,10038999922,-0.0756836,-0.283203,0.954102,10038999922,-45.1875,115.312,-178.5,10038999922,0.210022,-0.161987,0.23175,-0.935913,-0.498894,0.207349,-0.538471
10039007291,-1,-2,-3,-1,-17,5,-1,-1,10038999922,-0.0756836,-0.283203,0.954102,10038999922,-45.1875,115.312,-178.5,10038999922,0.210022,-0.161987,0.23175,-0.935913,-0.498894,0.207349,-0.538471
10039007291,0,2,5,-1,18,-9,1,-1,10038999922,-0.0756836,-0.283203,0.954102,10038999922,-45.1875,115.312,-178.5,10038999922,0.210022,-0.161987,0.23175,-0.935913,-0.498894,0.207349,-0.538471
10039015516,-1,-3,-3,0,-4,2,-1,-1,10038999922,-0.0756836,-0.283203,0.954102,10038999922,-45.1875,115.312,-178.5,10038999922,0.210022,-0.161987,0.23175,-0.935913,-0.498894,0.207349,-0.538471
10039015516,0,-1,-1,1,-8,-5,0,0,10039016149,-0.0654297,-0.395996,0.919434,10039016149,-30.75,108.5,-185.375,10039016149,0.215576,-0.173523,0.265076,-0.923706,-0.524778,0.207772,-0.614949
10039030351,-2,0,-2,-4,10,2,-1,-1,10039016149,-0.0654297,-0.395996,0.919434,10039016149,-30.75,108.5,-185.375,10039016149,0.215576,-0.173523,0.265076,-0.923706,-0.524778,0.207772,-0.614949
10039030351,-1,-2,0,-1,-13,-7,-4,0,10039016149,-0.0654297,-0.395996,0.919434,10039016149,-30.75,108.5,-185.375,10039016149,0.215576,-0.173523,0.265076,-0.923706,-0.524778,0.207772,-0.614949
10039031140,0,2,1,-1,0,12,4,1,10039016149,-0.0654297,-0.395996,0.919434,10039016149,-30.75,108.5,-185.375,10039016149,0.215576,-0.173523,0.265076,-0.923706,-0.524778,0.207772,-0.614949
10039031140,-1,-3,-2,-3,-3,-6,-2,-3,10039037344,-0.0639648,-0.447266,0.890625,10039037344,-7.9375,103.25,-185.438,10039037344,0.217468,-0.182983,0.298523,-0.911133,-0.542578,0.20504,-0.69048
10039052934,0,-2,-1,-1,4,-11,-3,-1,10039037344,-0.0639648,-0.447266,0.890625,10039037344,-7.9375,103.25,-185.438,10039037344,0.217468,-0.182983,0.298523,-0.911133,-0.542578,0.20504,-0.69048
10039052934,-1,-2,-3,5,-15,12,1,0,10039037344,-0.0639648,-0.447266,0.890625,10039037344,-7.9375,103.25,-185.438,10039037344,0.217468,-0.182983,0.298523,-0.911133,-0.542578,0.20504,-0.69048
10039053587,-2,2,1,-2,23,8,3,0,10039037344,-0.0639648,-0.447266,0.890625,10039037344,-7.9375,103.25,-185.438,10039037344,0.217468,-0.182983,0.298523,-0.911133,-0.542578,0.20504,-0.69048
10039053587,-2,0,1,2,8,3,-1,0,10039059861,-0.0541992,-0.361816,0.891113,10039059861,22,97.4375,-174.5,10039059861,0.21405,-0.190063,0.330566,-0.899353,-0.548297,0.201718,-0.761402
10039067294,1,1,0,-4,-14,8,2,-1,10039059861,-0.0541992,-0.361816,0.891113,10039059861,22,97.4375,-174.5,10039059861,0.21405,-0.190063,0.330566,-0.899353,-0.548297,0.201718,-0.761402
10039067294,-1,-4,-5,-2,-1,-3,-3,-1,10039059861,-0.0541992,-0.361816,0.891113,10039059861,22,97.4375,-174.5,10039059861,0.21405,-0.190063,0.330566,-0.899353,-0.548297,0.201718,-0.761402
10039075515,0,-4,-3,0,-3,-14,-3,1,10039059861,-0.0541992,-0.361816,0.891113,10039059861,22,97.4375,-174.5,10039059861,0.21405,-0.190063,0.330566,-0.899353,-0.548297,0.201718,-0.761402
10039075515,0,1,0,4,-7,8,-3,1,10039076193,-0.0283203,-0.228516,0.897949,10039076193,45.125,89.3125,-165.938,10039076193,0.206665,-0.194397,0.361389,-0.888184,-0.544109,0.197223,-0.828024
10039090301,-2,-1,-4,-3,4,-2,1,-1,10039076193,-0.0283203,-0.228516,0.897949,10039076193,45.125,89.3125,-165.938,10039076193,0.206665,-0.194397,0.361389,-0.888184,-0.544109,0.197223,-0.828024
10039090301,-1,2,3,1,13,4,-8,-4,10039076193,-0.0283203,-0.228516,0.897949,10039076193,45.125,89.3125,-165.938,10039076193,0.206665,-0.194397,0.361389,-0.888184,-0.544109,0.197223,-0.828024
10039091087,2,3,4,1,-10,21,3,-1,10039076193,-0.0283203,-0.228516,0.897949,10039076193,45.125,89.3125,-165.938,10039076193,0.206665,-0.194397,0.361389,-0.888184,-0.544109,0.197223,-0.828024
10039091087,2,-2,-2,-3,2,-7,5,4,10039097340,0.0268555,-0.161621,0.871094,10039097340,44.1875,81.0625,-163.312,10039097340,0.199585,-0.197327,0.391113,-0.876526,-0.539339,0.190962,-0.892351
10039112872,-3,-4,-2,1,0,-3,1,-4,10039097340,0.0268555,-0.161621,0.871094,10039097340,44.1875,81.0625,-163.312,10039097340,0.199585,-0.197327,0.391113,-0.876526,-0.539339,0.190962,-0.892351
10039112872,0,-2,-3,0,-8,-5,-1,-2,10039097340,0.0268555,-0.161621,0.871094,10039097340,44.1875,81.0625,-163.312,10039097340,0.199585,-0.197327,0.391113,-0.876526,-0.539339,0.190962,-0.892351
10039113594,0,-3,-3,-2,-1,-17,0,4,10039097340,0.0268555,-0.161621,0.871094,10039097340,44.1875,81.0625,-163.312,10039097340,0.199585,-0.197327,0.391113,-0.876526,-0.539339,0.190962,-0.892351
10039113594,-3,-1,0,-4,-8,-8,5,-2,10039119663,0.119629,-0.172852,0.919434,10039119663,31.75,79.625,-166.938,10039119663,0.194519,-0.200256,0.420532,-0.863281,-0.538506,0.183175,-0.957311
10039127052,1,0,1,0,2,22,14,4,10039119663,0.119629,-0.172852,0.919434,10039119663,31.75,79.625,-166.938,10039119663,0.194519,-0.200256,0.420532,-0.863281,-0.538506,0.183175,-0.957311
10039127052,-3,0,1,1,15,-1,-3,-3,10039119663,0.119629,-0.172852,0.919434,10039119663,31.75,79.625,-166.938,10039119663,0.194519,-0.200256,0.420532,-0.863281,-0.538506,0.183175,-0.957311
10039135332,-1,-2,-2,-2,-19,-6,-2,-4,10039119663,0.119629,-0.172852,0.919434,10039119663,31.75,79.625,-166.938,10039119663,0.194519,-0.200256,0.420532,-0.863281,-0.538506,0.183175,-0.957311
10039135332,-1,-2,0,-2,-1,-5,3,-4,10039136117,0.168945,-0.234375,0.952148,10039136117,26.1875,80.5625,-174.188,10039136117,0.190369,-0.203186,0.4505,-0.848267,-0.539607,0.174067,-1.02468
10039150271,1,1,0,-4,0,-1,-15,-4,10039136117,0.168945,-0.234375,0.952148,10039136117,26.1875,80.5625,-174.188,10039136117,0.190369,-0.203186,0.4505,-0.848267,-0.539607,0.174067,-1.02468
10039150271,-2,0,-3,-2,12,17,3,0,10039136117,0.168945,-0.234375,0.952148,10039136117,26.1875,80.5625,-174.188,10039136117,0.190369,-0.203186,0.4505,-0.848267,-0.539607,0.174067,-1.02468
10039151073,-1,0,2,-2,-14,-9,-3,-2,10039136117,0.168945,-0.234375,0.952148,10039136117,26.1875,80.5625,-174.188,10039136117,0.190369,-0.203186,0.4505,-0.848267,-0.539607,0.174067,-1.02468
10039151073,1,-1,-2,-4,-1,-2,-4,-2,10039157149,0.112305,-0.316406,0.938965,10039157149,25,78.9375,-177.938,10039157149,0.186584,-0.205933,0.480347,-0.831909,-0.541243,0.16412,-1.09292
10039172776,0,-2,-2,-4,2,3,1,0,10039157149,0.112305,-0.316406,0.938965,10039157149,25,78.9375,-177.938,10039157149,0.186584,-0.205933,0.480347,-0.831909,-0.541243,0.16412,-1.09292
10039172776,-1,-1,1,-2,-10,-22,-3,-1,10039157149,0.112305,-0.316406,0.938965,10039157149,25,78.9375,-177.938,10039157149,0.186584,-0.205933,0.480347,-0.831909,-0.541243,0.16412,-1.09292
10039173576,-2,-2,-2,-2,9,31,-1,0,10039157149,0.112305,-0.316406,0.938965,10039157149,25,78.9375,-177.938,10039157149,0.186584,-0.205933,0.480347,-0.831909,-0.541243,0.16412,-1.09292
10039173576,-3,-1,-3,1,-10,-28,-4,-1,10039179634,0.059082,-0.30127,0.929688,10039179634,27.4375,73.75,-177.562,10039179634,0.182495,-0.207581,0.509399,-0.814941,-0.540941,0.153002,-1.15981
10039187206,-2,-2,0,0,5,16,-1,1,10039179634,0.059082,-0.30127,0.929688,10039179634,27.4375,73.75,-177.562,10039179634,0.182495,-0.207581,0.509399,-0.814941,-0.540941,0.153002,-1.15981
10039187206,-2,-2,1,-3,-11,-15,-2,-2,10039179634,0.059082,-0.30127,0.929688,10039179634,27.4375,73.75,-177.562,10039179634,0.182495,-0.207581,0.509399,-0.814941,-0.540941,0.153002,-1.15981
10039195485,-2,-1,-5,1,-3,4,-2,-2,10039179634,0.059082,-0.30127,0.929688,10039179634,27.4375,73.75,-177.562,10039179634,0.182495,-0.207581,0.509399,-0.814941,-0.540941,0.153002,-1.15981
10039195485,-1,-1,-4,-1,-12,-9,-1,-2,10039196192,0.114258,-0.212891,0.954102,10039196192,34.6875,68.8125,-173.312,10039196192,0.177307,-0.20752,0.537476,-0.797852,-0.53644,0.14101,-1.22442
10039210415,0,3,10,3,35,-14,2,1,10039196192,0.114258,-0.212891,0.954102,10039196192,34.6875,68.8125,-173.312,10039196192,0.177307,-0.20752,0.537476,-0.797852,-0.53644,0.14101,-1.22442
10039210415,-1,-1,-5,-4,-19,2,6,1,10039196192,0.114258,-0.212891,0.954102,10039196192,34.6875,68.8125,-173.312,10039196192,0.177307,-0.20752,0.537476,-0.797852,-0.53644,0.14101,-1.22442
10039211140,-2,0,1,-2,2,-39,-4,-3,10039196192,0.114258,-0.212891,0.954102,10039196192,34.6875,68.8125,-173.312,10039196192,0.177307,-0.20752,0.537476,-0.797852,-0.53644,0.14101,-1.22442
10039211140,1,1,-2,-2,12,26,-11,-2,10039217361,0.197754,-0.192871,0.973633,10039217361,38.9375,64.375,-173.562,10039217361,0.171814,-0.206055,0.565125,-0.780212,-0.5295,0.127687,-1.28846
10039233007,-3,-3,-5,-2,-27,-10,1,-2,10039217361,0.197754,-0.192871,0.973633,10039217361,38.9375,64.375,-173.562,10039217361,0.171814,-0.206055,0.565125,-0.780212,-0.5295,0.127687,-1.28846
10039233007,0,-2,2,-2,1,5,1,1,10039217361,0.197754,-0.192871,0.973633,10039217361,38.9375,64.375,-173.562,10039217361,0.171814,-0.206055,0.565125,-0.780212,-0.5295,0.127687,-1.28846
10039233624,-2,-3,0,1,-6,-22,-4,0,10039217361,0.197754,-0.192871,0.973633,10039217361,38.9375,64.375,-173.562,10039217361,0.171814,-0.206055,0.565125,-0.780212,-0.5295,0.127687,-1.28846
10039233624,-1,-2,-1,-3,-2,4,7,3,10039239841,0.274414,-0.263184,0.970703,10039239841,38.625,63.3125,-175.125,10039239841,0.166687,-0.204163,0.592285,-0.761414,-0.522329,0.113697,-1.35264
10039256041,0,-2,-3,-5,-2,-2,-6,-3,10039239841,0.274414,-0.263184,0.970703,10039239841,38.625,63.3125,-175.125,10039239841,0.166687,-0.204163,0.592285,-0.761414,-0.522329,0.113697,-1.35264
10039256041,-1,-2,1,1,7,4,-4,-2,10039239841,0.274414,-0.263184,0.970703,10039239841,38.625,63.3125,-175.125,10039239841,0.166687,-0.204163,0.592285,-0.761414,-0.522329,0.113697,-1.35264
10039256757,1,-4,-4,-3,-5,-11,-3,1,10039239841,0.274414,-0.263184,0.970703,10039239841,38.625,63.3125,-175.125,10039239841,0.166687,-0.204163,0.592285,-0.761414,-0.522329,0.113697,-1.35264
10039256757,-1,0,2,-4,11,15,-3,-3,10039257612,0.292969,-0.362305,0.98877,10039257612,30.875,64,-176.188,10039257612,0.162537,-0.203064,0.618652,-0.741394,-0.517531,0.100161,-1.41737
10039270244,-1,1,3,1,-3,-9,0,-2,10039257612,0.292969,-0.362305,0.98877,10039257612,30.875,64,-176.188,10039257612,0.162537,-0.203064,0.618652,-0.741394,-0.517531,0.100161,-1.41737
10039270244,-3,0,-4,-4,-14,-13,-3,-3,10039257612,0.292969,-0.362305,0.98877,10039257612,30.875,64,-176.188,10039257612,0.162537,-0.203064,0.618652,-0.741394,-0.517531,0.100161,-1.41737
10039271061,-2,-1,-2,2,1,-18,-3,-4,10039257612,0.292969,-0.362305,0.98877,10039257612,30.875,64,-176.188,10039257612,0.162537,-0.203064,0.618652,-0.741394,-0.517531,0.100161,-1.41737
10039271061,-2,-2,-2,-6,-1,9,0,-1,10039277274,0.267578,-0.402344,1.02393,10039277274,29.875,64.125,-172,10039277274,0.158142,-0.202026,0.643738,-0.720947,-0.512109,0.0878094,-1.48075
10039292820,-1,-1,-1,-5,-5,-2,-2,-1,10039277274,0.267578,-0.402344,1.02393,10039277274,29.875,64.125,-172,10039277274,0.158142,-0.202026,0.643738,-0.720947,-0.512109,0.0878094,-1.48075
10039292820,3,0,-1,-6,2,-1,3,1,10039277274,0.267578,-0.402344,1.02393,10039277274,29.875,64.125,-172,10039277274,0.158142,-0.202026,0.643738,-0.720947,-0.512109,0.0878094,-1.48075
10039293628,-1,1,-2,3,-19,5,0,-1,10039277274,0.267578,-0.402344,1.02393,10039277274,29.875,64.125,-172,10039277274,0.158142,-0.202026,0.643738,-0.720947,-0.512109,0.0878094,-1.48075
10039293628,-2,-4,-4,-4,11,-1,6,1,10039299885,0.28125,-0.435059,1.02441,10039299885,29.8125,57.875,-169.875,10039299885,0.154297,-0.200195,0.667725,-0.700195,-0.506095,0.0743645,-1.54258
10039316113,0,2,-1,1,-16,-7,-5,0,10039299885,0.28125,-0.435059,1.02441,10039299885,29.8125,57.875,-169.875,10039299885,0.154297,-0.200195,0.667725,-0.700195,-0.506095,0.0743645,-1.54258
10039316113,0,-1,-3,1,16,-2,-5,3,10039299885,0.28125,-0.435059,1.02441,10039299885,29.8125,57.875,-169.875,10039299885,0.154297,-0.200195,0.667725,-0.700195,-0.506095,0.0743645,-1.54258
10039316834,2,0,0,2,20,17,5,3,10039299885,0.28125,-0.435059,1.02441,10039299885,29.8125,57.875,-169.875,10039299885,0.154297,-0.200195,0.667725,-0.700195,-0.506095,0.0743645,-1.54258
10039316834,-1,-1,-1,0,-34,-23,-2,-1,10039317636,0.371094,-0.472168,0.990723,10039317636,37.9375,55.5625,-162.688,10039317636,0.149597,-0.197083,0.690369,-0.679871,-0.496589,0.0614655,-1.60176
10039330512,-2,-2,-3,3,12,-10,3,-2,10039317636,0.371094,-0.472168,0.990723,10039317636,37.9375,55.5625,-162.688,10039317636,0.149597,-0.197083,0.690369,-0.679871,-0.496589,0.0614655,-1.60176
10039330512,-4,-1,-1,-4,-26,-13,-19,-6,10039317636,0.371094,-0.472168,0.990723,10039317636,37.9375,55.5625,-162.688,10039317636,0.149597,-0.197083,0.690369,-0.679871,-0.496589,0.0614655,-1.60176
10039331124,-1,0,-2,-5,4,7,0,-1,10039317636,0.371094,-0.472168,0.990723,10039317636,37.9375,55.5625,-162.688,10039317636,0.149597,-0.197083,0.690369,-0.679871,-0.496589,0.0614655,-1.60176
10039331124,0,-2,3,-1,2,3,-2,2,10039337357,0.431641,-0.484375,0.947754,10039337357,40.75,54.8125,-157.5,10039337357,0.144531,-0.193481,0.711853,-0.659546,-0.485531,0.0494699,-1.65935
10039352966,-3,-2,0,-2,-3,-13,-3,-3,10039337357,0.431641,-0.484375,0.947754,10039337357,40.75,54.8125,-157.5,10039337357,0.144531,-0.193481,0.711853,-0.659546,-0.485531,0.0494699,-1.65935
10039352966,-2,-1,-3,-6,4,25,6,-3,10039337357,0.431641,-0.484375,0.947754,10039337357,40.75,54.8125,-157.5,10039337357,0.144531,-0.193481,0.711853,-0.659546,-0.485531,0.0494699,-1.65935
10039353653,-2,-1,0,-5,4,-4,0,-1,10039337357,0.431641,-0.484375,0.947754,10039337357,40.75,54.8125,-157.5,10039337357,0.144531,-0.193481,0.711853,-0.659546,-0.485531,0.0494699,-1.65935
10039353653,-1,0,-3,-2,-2,-4,-6,-3,10039359671,0.447754,-0.48584,0.949219,10039359671,34.8125,53.1875,-154.25,10039359671,0.140137,-0.190369,0.732056,-0.638916,-0.475884,0.0380926,-1.7157
10039376038,1,1,-1,2,-3,-9,-3,1,10039359671,0.447754,-0.48584,0.949219,10039359671,34.8125,53.1875,-154.25,10039359671,0.140137,-0.190369,0.732056,-0.638916,-0.475884,0.0380926,-1.7157
10039376038,0,-2,0,0,11,17,6,0,10039359671,0.447754,-0.48584,0.949219,10039359671,34.8125,53.1875,-154.25,10039359671,0.140137,-0.190369,0.732056,-0.638916,-0.475884,0.0380926,-1.7157
10039376824,-1,-3,1,-2,4,-12,-5,-2,10039359671,0.447754,-0.48584,0.949219,10039359671,34.8125,53.1875,-154.25,10039359671,0.140137,-0.190369,0.732056,-0.638916,-0.475884,0.0380926,-1.7157
10039376824,-1,0,1,-1,0,0,2,-2,10039377629,0.422363,-0.518066,0.984375,10039377629,29.625,50.5,-151.188,10039377629,0.136414,-0.187622,0.751038,-0.618164,-0.467482,0.0270623,-1.77072
10039390550,2,0,0,-2,3,28,7,3,10039377629,0.422363,-0.518066,0.984375,10039377629,29.625,50.5,-151.188,10039377629,0.136414,-0.187622,0.751038,-0.618164,-0.467482,0.0270623,-1.77072
10039390550,-1,-1,-3,3,-11,-48,-2,-2,10039377629,0.422363,-0.518066,0.984375,10039377629,29.625,50.5,-151.188,10039377629,0.136414,-0.187622,0.751038,-0.618164,-0.467482,0.0270623,-1.77072
10039391056,-1,-2,-2,-1,5,13,-1,-4,10039377629,0.422363,-0.518066,0.984375,10039377629,29.625,50.5,-151.188,10039377629,0.136414,-0.187622,0.751038,-0.618164,-0.467482,0.0270623,-1.77072
10039391056,-3,0,-1,-2,-18,-7,-3,-1,10039397432,0.408691,-0.572266,0.95459,10039397432,31.8125,48.5625,-146.938,10039397432,0.132507,-0.18457,0.768921,-0.597595,-0.458133,0.0168222,-1.82415
10039412818,-3,0,-1,-3,-4,-3,-4,-1,10039397432,0.408691,-0.572266,0.95459,10039397432,31.8125,48.5625,-146.938,10039397432,0.132507,-0.18457,0.768921,-0.597595,-0.458133,0.0168222,-1.82415
10039412818,-1,-1,1,0,-7,6,4,2,10039397432,0.408691,-0.572266,0.95459,10039397432,31.8125,48.5625,-146.938,10039397432,0.132507,-0.18457,0.768921,-0.597595,-0.458133,0.0168222,-1.82415
10039413590,1,0,-1,-3,2,-3,-1,0,10039397432,0.408691,-0.572266,0.95459,10039397432,31.8125,48.5625,-146.938,10039397432,0.132507,-0.18457,0.768921,-0.597595,-0.458133,0.0168222,-1.82415
10039413590,-2,-1,-4,-3,4,8,-5,-3,10039419677,0.405762,-0.614258,0.935547,10039419677,26.8125,44.5,-142.562,10039419677,0.129517,-0.181885,0.785461,-0.577209,-0.45032,0.00651068,-1.87557
10039435978,-3,-4,-4,-1,5,7,0,-4,10039419677,0.405762,-0.614258,0.935547,10039419677,26.8125,44.5,-142.562,10039419677,0.129517,-0.181885,0.785461,-0.577209,-0.45032,0.00651068,-1.87557
10039435978,2,1,1,3,-5,-2,2,1,10039419677,0.405762,-0.614258,0.935547,10039419677,26.8125,44.5,-142.562,10039419677,0.129517,-0.181885,0.785461,-0.577209,-0.45032,0.00651068,-1.87557
10039436764,-5,0,-2,5,-17,-17,-4,-4,10039419677,0.405762,-0.614258,0.935547,10039419677,26.8125,44.5,-142.562,10039419677,0.129517,-0.181885,0.785461,-0.577209,-0.45032,0.00651068,-1.87557
10039436764,1,3,2,-2,4,8,-8,-3,10039437585,0.37207,-0.602539,0.910645,10039437585,16.4375,40.375,-137.938,10039437585,0.127808,-0.180298,0.800598,-0.556946,-0.445667,-0.00381283,-1.9251
10039450346,-2,-1,-1,-2,-5,-20,-7,-2,10039437585,0.37207,-0.602539,0.910645,10039437585,16.4375,40.375,-137.938,10039437585,0.127808,-0.180298,0.800598,-0.556946,-0.445667,-0.00381283,-1.9251
10039450346,-1,-1,-3,0,20,12,2,0,10039437585,0.37207,-0.602539,0.910645,10039437585,16.4375,40.375,-137.938,10039437585,0.127808,-0.180298,0.800598,-0.556946,-0.445667,-0.00381283,-1.9251
10039451117,1,1,2,1,27,26,-2,-1,10039437585,0.37207,-0.602539,0.910645,10039437585,16.4375,40.375,-137.938,10039437585,0.127808,-0.180298,0.800598,-0.556946,-0.445667,-0.00381283,-1.9251
10039451117,-3,-2,-3,1,-25,-44,-11,-5,10039457173,0.346191,-0.577148,0.905273,10039457173,-3.6875,34.8125,-129,10039457173,0.128357,-0.18103,0.81366,-0.537354,-0.447356,-0.0143237,-1.97104
10039472811,0,-3,-5,-1,-5,15,-3,-4,10039457173,0.346191,-0.577148,0.905273,10039457173,-3.6875,34.8125,-129,10039457173,0.128357,-0.18103,0.81366,-0.537354,-0.447356,-0.0143237,-1.97104
10039472811,-1,3,5,-1,-4,-12,0,-1,10039457173,0.346191,-0.577148,0.905273,10039457173,-3.6875,34.8125,-129,10039457173,0.128357,-0.18103,0.81366,-0.537354,-0.447356,-0.0143237,-1.97104
10039473581,-2,-3,-4,-3,1,11,2,2,10039457173,0.346191,-0.577148,0.905273,10039457173,-3.6875,34.8125,-129,10039457173,0.128357,-0.18103,0.81366,-0.537354,-0.447356,-0.0143237,-1.97104
10039473581,2,0,1,2,10,7,7,1,10039479621,0.350098,-0.574707,0.869141,10039479621,-23.875,31.3125,-116.375,10039479621,0.130798,-0.184509,0.824341,-0.518921,-0.455682,-0.0241557,-2.01231
10039495934,-1,2,1,1,3,2,-2,-1,10039479621,0.350098,-0.574707,0.869141,10039479621,-23.875,31.3125,-116.375,10039479621,0.130798,-0.184509,0.824341,-0.518921,-0.455682,-0.0241557,-2.01231
10039495934,-4,-1,-3,2,-1,15,9,-2,10039479621,0.350098,-0.574707,0.869141,10039479621,-23.875,31.3125,-116.375,10039479621,0.130798,-0.184509,0.824341,-0.518921,-0.455682,-0.0241557,-2.01231
10039496718,1,0,1,2,-3,9,2,1,10039479621,0.350098,-0.574707,0.869141,10039479621,-23.875,31.3125,-116.375,10039479621,0.130798,-0.184509,0.824341,-0.518921,-0.455682,-0.0241557,-2.01231
10039496718,0,-1,0,-3,-3,-4,7,0,10039497594,0.373535,-0.64502,0.838379,10039497594,-28.9375,32.3125,-102.75,10039497594,0.133179,-0.189209,0.833252,-0.502075,-0.465961,-0.031954,-2.04936
10039510480,-2,-2,-3,2,-14,0,2,-3,10039497594,0.373535,-0.64502,0.838379,10039497594,-28.9375,32.3125,-102.75,10039497594,0.133179,-0.189209,0.833252,-0.502075,-0.465961,-0.031954,-2.04936
10039510480,-1,-1,-1,-2,6,-11,-3,-3,10039497594,0.373535,-0.64502,0.838379,10039497594,-28.9375,32.3125,-102.75,10039497594,0.133179,-0.189209,0.833252,-0.502075,-0.465961,-0.031954,-2.04936
10039511194,-1,0,1,1,-1,6,-3,-2,10039497594,0.373535,-0.64502,0.838379,10039497594,-28.9375,32.3125,-102.75,10039497594,0.133179,-0.189209,0.833252,-0.502075,-0.465961,-0.031954,-2.04936
10039511194,-2,-2,-2,0,12,8,1,0,10039517373,0.347656,-0.723145,0.862305,10039517373,-18.25,37.1875,-91.875,10039517373,0.136963,-0.193665,0.841187,-0.485901,-0.477239,-0.0422317,-2.08365
10039532937,0,0,0,-2,7,8,0,0,10039517373,0.347656,-0.723145,0.862305,10039517373,-18.25,37.1875,-91.875,10039517373,0.136963,-0.193665,0.841187,-0.485901,-0.477239,-0.0422317,-2.08365
10039532937,-1,-2,-2,-3,-23,-9,-3,-1,10039517373,0.347656,-0.723145,0.862305,10039517373,-18.25,37.1875,-91.875,10039517373,0.136963,-0.193665,0.841187,-0.485901,-0.477239,-0.0422317,-2.08365
10039533658,0,0,-3,-2,-1,8,8,0,10039517373,0.347656,-0.723145,0.862305,10039517373,-18.25,37.1875,-91.875,10039517373,0.136963,-0.193665,0.841187,-0.485901,-0.477239,-0.0422317,-2.08365
10039533658,-2,0,0,-1,14,-9,-11,-4,10039547237,0.260742,-0.722656,0.866211,10039547237,-1.5,36.3125,-82.1875,10039547237,0.138062,-0.196228,0.848511,-0.47168,-0.482285,-0.0491997,-2.1148
10039556117,2,0,0,-2,8,-9,0,4,10039547237,0.260742,-0.722656,0.866211,10039547237,-1.5,36.3125,-82.1875,10039547237,0.138062,-0.196228,0.848511,-0.47168,-0.482285,-0.0491997,-2.1148
10039556117,0,-1,-1,2,12,18,-3,-2,10039547237,0.260742,-0.722656,0.866211,10039547237,-1.5,36.3125,-82.1875,10039547237,0.138062,-0.196228,0.848511,-0.47168,-0.482285,-0.0491997,-2.1148
10039556852,-3,-2,-1,-4,-8,-14,-2,-1,10039547237,0.260742,-0.722656,0.866211,10039547237,-1.5,36.3125,-82.1875,10039547237,0.138062,-0.196228,0.848511,-0.47168,-0.482285,-0.0491997,-2.1148
10039556852,-1,1,0,4,-2,8,-2,1,10039557672,0.202148,-0.687012,0.856445,10039557672,4.3125,27.0625,-67.6875,10039557672,0.138733,-0.19751,0.85437,-0.460205,-0.484648,-0.0552967,-2.13974
10039570514,-3,-1,-4,-3,-3,7,-3,0,10039557672,0.202148,-0.687012,0.856445,10039557672,4.3125,27.0625,-67.6875,10039557672,0.138733,-0.19751,0.85437,-0.460205,-0.484648,-0.0552967,-2.13974
10039570514,-1,-2,-1,-1,-4,-2,-5,0,10039557672,0.202148,-0.687012,0.856445,10039557672,4.3125,27.0625,-67.6875,10039557672,0.138733,-0.19751,0.85437,-0.460205,-0.484648,-0.0552967,-2.13974
10039571105,-2,-1,1,0,-10,-38,-6,-2,10039557672,0.202148,-0.687012,0.856445,10039557672,4.3125,27.0625,-67.6875,10039557672,0.138733,-0.19751,0.85437,-0.460205,-0.484648,-0.0552967,-2.13974
10039571105,1,-4,-1,-1,2,27,1,-2,10039577404,0.205566,-0.672363,0.868652,10039577404,0.625,19.25,-51.875,10039577404,0.140137,-0.198853,0.858643,-0.451172,-0.487951,-0.0612597,-2.15875
10039592921,-1,-3,-1,1,-13,-5,3,0,10039577404,0.205566,-0.672363,0.868652,10039577404,0.625,19.25,-51.875,10039577404,0.140137,-0.198853,0.858643,-0.451172,-0.487951,-0.0612597,-2.15875
10039592921,0,0,-1,-4,5,11,-7,0,10039577404,0.205566,-0.672363,0.868652,10039577404,0.625,19.25,-51.875,10039577404,0.140137,-0.198853,0.858643,-0.451172,-0.487951,-0.0612597,-2.15875
10039593666,-3,0,-2,0,3,7,1,-1,10039577404,0.205566,-0.672363,0.868652,10039577404,0.625,19.25,-51.875,10039577404,0.140137,-0.198853,0.858643,-0.451172,-0.487951,-0.0612597,-2.15875
10039593666,2,0,-1,0,-15,-21,4,2,10039599873,0.214844,-0.654297,0.857422,10039599873,-0.1875,15.0625,-39.125,10039599873,0.141724,-0.200073,0.861694,-0.444214,-0.491288,-0.0665434,-2.17291
10039616146,-1,-2,-5,1,-11,4,6,2,10039599873,0.214844,-0.654297,0.857422,10039599873,-0.1875,15.0625,-39.125,10039599873,0.141724,-0.200073,0.861694,-0.444214,-0.491288,-0.0665434,-2.17291
10039616146,-4,-1,2,-3,-6,-12,-1,-1,10039599873,0.214844,-0.654297,0.857422,10039599873,-0.1875,15.0625,-39.125,10039599873,0.141724,-0.200073,0.861694,-0.444214,-0.491288,-0.0665434,-2.17291
10039616864,1,-3,-1,-2,-8,-4,2,0,10039599873,0.214844,-0.654297,0.857422,10039599873,-0.1875,15.0625,-39.125,10039599873,0.141724,-0.200073,0.861694,-0.444214,-0.491288,-0.0665434,-2.17291
10039616864,-1,-2,-2,-4,20,9,5,-1,10039617629,0.222168,-0.661133,0.838867,10039617629,1.625,10.8125,-25.5625,10039617629,0.143433,-0.201172,0.863647,-0.439392,-0.494653,-0.0710235,-2.18238
10039630554,-2,-1,-4,0,-1,11,-5,-3,10039617629,0.222168,-0.661133,0.838867,10039617629,1.625,10.8125,-25.5625,10039617629,0.143433,-0.201172,0.863647,-0.439392,-0.494653,-0.0710235,-2.18238
10039630554,1,0,-6,1,-13,-1,3,1,10039617629,0.222168,-0.661133,0.838867,10039617629,1.625,10.8125,-25.5625,10039617629,0.143433,-0.201172,0.863647,-0.439392,-0.494653,-0.0710235,-2.18238
10039631145,0,0,2,0,6,-15,-9,-1,10039617629,0.222168,-0.661133,0.838867,10039617629,1.625,10.8125,-25.5625,10039617629,0.143433,-0.201172,0.863647,-0.439392,-0.494653,-0.0710235,-2.18238
10039631145,-3,1,-1,2,0,19,5,-2,10039637260,0.22998,-0.665039,0.840332,10039637260,4,7.125,-13,10039637260,0.145081,-0.201843,0.864563,-0.436707,-0.497304,-0.0746393,-2.18714
10039652966,-3,-2,-1,1,-3,-15,-14,-7,10039637260,0.22998,-0.665039,0.840332,10039637260,4,7.125,-13,10039637260,0.145081,-0.201843,0.864563,-0.436707,-0.497304,-0.0746393,-2.18714
10039652966,-3,-2,-1,-4,12,7,-2,-3,10039637260,0.22998,-0.665039,0.840332,10039637260,4,7.125,-13,10039637260,0.145081,-0.201843,0.864563,-0.436707,-0.497304,-0.0746393,-2.18714
10039653635,-1,-2,-4,0,-17,-7,3,2,10039637260,0.22998,-0.665039,0.840332,10039637260,4,7.125,-13,10039637260,0.145081,-0.201843,0.864563,-0.436707,-0.497304,-0.0746393,-2.18714
10039653635,-4,-4,-2,-4,-11,-10,-6,-4,10039659951,0.212891,-0.645996,0.836426,10039659951,7.5625,4.0625,-2.1875,10039659951,0.146301,-0.201965,0.864746,-0.435852,-0.498662,-0.0770491,-2.1882
10039676185,-3,-1,-1,-3,10,-4,-9,-4,10039659951,0.212891,-0.645996,0.836426,10039659951,7.5625,4.0625,-2.1875,10039659951,0.146301,-0.201965,0.864746,-0.435852,-0.498662,-0.0770491,-2.1882
10039676185,0,0,-1,-2,-8,-3,4,2,10039659951,0.212891,-0.645996,0.836426,10039659951,7.5625,4.0625,-2.1875,10039659951,0.146301,-0.201965,0.864746,-0.435852,-0.498662,-0.0770491,-2.1882
10039676797,-1,-1,1,-2,9,12,-4,-2,10039659951,0.212891,-0.645996,0.836426,10039659951,7.5625,4.0625,-2.1875,10039659951,0.146301,-0.201965,0.864746,-0.435852,-0.498662,-0.0770491,-2.1882
10039676797,0,1,1,-3,-8,-8,-1,-1,10039677628,0.200684,-0.621094,0.857422,10039677628,3.9375,-1,8.4375,10039677628,0.147827,-0.202271,0.863953,-0.436829,-0.500819,-0.0787977,-2.18517
10039690451,0,2,1,4,1,13,-2,2,10039677628,0.200684,-0.621094,0.857422,10039677628,3.9375,-1,8.4375,10039677628,0.147827,-0.202271,0.863953,-0.436829,-0.500819,-0.0787977,-2.18517
10039690451,2,-2,0,-1,1,0,-2,-3,10039677628,0.200684,-0.621094,0.857422,10039677628,3.9375,-1,8.4375,10039677628,0.147827,-0.202271,0.863953,-0.436829,-0.500819,-0.0787977,-2.18517
10039691084,-3,-2,0,1,-11,-5,-3,-3,10039677628,0.200684,-0.621094,0.857422,10039677628,3.9375,-1,8.4375,10039677628,0.147827,-0.202271,0.863953,-0.436829,-0.500819,-0.0787977,-2.18517
10039691084,0,0,0,-1,18,-5,-16,-6,10039697308,0.209961,-0.632324,0.873047,10039697308,1.8125,-5.8125,20.25,10039697308,0.149841,-0.202759,0.862061,-0.439636,-0.503944,-0.0801501,-2.17774
10039712977,-3,-2,0,0,3,6,4,1,10039697308,0.209961,-0.632324,0.873047,10039697308,1.8125,-5.8125,20.25,10039697308,0.149841,-0.202759,0.862061,-0.439636,-0.503944,-0.0801501,-2.17774
10039712977,1,2,2,1,2,17,0,2,10039697308,0.209961,-0.632324,0.873047,10039697308,1.8125,-5.8125,20.25,10039697308,0.149841,-0.202759,0.862061,-0.439636,-0.503944,-0.0801501,-2.17774
10039713644,0,-1,-1,-1,-2,-2,2,-6,10039697308,0.209961,-0.632324,0.873047,10039697308,1.8125,-5.8125,20.25,10039697308,0.149841,-0.202759,0.862061,-0.439636,-0.503944,-0.0801501,-2.17774
10039713644,2,-3,-3,5,-7,15,0,2,10039719802,0.211426,-0.637695,0.872559,10039719802,2.375,-8.8125,32.125,10039719802,0.151917,-0.203247,0.859192,-0.444336,-0.507315,-0.0805179,-2.16618
10039735997,2,-1,2,0,11,-3,1,3,10039719802,0.211426,-0.637695,0.872559,10039719802,2.375,-8.8125,32.125,10039719802,0.151917,-0.203247,0.859192,-0.444336,-0.507315,-0.0805179,-2.16618
10039735997,-4,-1,3,1,3,-46,7,0,10039719802,0.211426,-0.637695,0.872559,10039719802,2.375,-8.8125,32.125,10039719802,0.151917,-0.203247,0.859192,-0.444336,-0.507315,-0.0805179,-2.16618
10039736747,0,-1,-1,-5,14,11,3,3,10039719802,0.211426,-0.637695,0.872559,10039719802,2.375,-8.8125,32.125,10039719802,0.151917,-0.203247,0.859192,-0.444336,-0.507315,-0.0805179,-2.16618
10039736747,-2,1,-3,-2,-2,-7,11,3,10039737586,0.21875,-0.645996,0.859863,10039737586,4.625,-12.6875,44.0625,10039737586,0.154114,-0.20343,0.855286,-0.450928,-0.510419,-0.0802441,-2.15025
10039750254,-2,-4,-7,-3,-11,13,2,-7,10039737586,0.21875,-0.645996,0.859863,10039737586,4.625,-12.6875,44.0625,10039737586,0.154114,-0.20343,0.855286,-0.450928,-0.510419,-0.0802441,-2.15025
10039750254,0,-1,2,-1,-6,4,-1,4,10039737586,0.21875,-0.645996,0.859863,10039737586,4.625,-12.6875,44.0625,10039737586,0.154114,-0.20343,0.855286,-0.450928,-0.510419,-0.0802441,-2.15025
10039751057,-2,1,4,-2,7,-6,-13,-4,10039737586,0.21875,-0.645996,0.859863,10039737586,4.625,-12.6875,44.0625,10039737586,0.154114,-0.20343,0.855286,-0.450928,-0.510419,-0.0802441,-2.15025
10039751057,-1,-3,-2,-1,4,-9,-11,-1,10039757117,0.249023,-0.638672,0.852051,10039757117,5.75,-16.4375,56.625,10039757117,0.156616,-0.203247,0.850281,-0.459473,-0.513372,-0.0796467,-2.12976
10039772811,0,3,3,-5,2,-4,4,-3,10039757117,0.249023,-0.638672,0.852051,10039757117,5.75,-16.4375,56.625,10039757117,0.156616,-0.203247,0.850281,-0.459473,-0.513372,-0.0796467,-2.12976
10039772811,0,-1,-8,-1,2,-10,-2,-3,10039757117,0.249023,-0.638672,0.852051,10039757117,5.75,-16.4375,56.625,10039757117,0.156616,-0.203247,0.850281,-0.459473,-0.513372,-0.0796467,-2.12976
10039773598,-1,1,-3,-2,-12,10,5,-1,10039757117,0.249023,-0.638672,0.852051,10039757117,5.75,-16.4375,56.625,10039757117,0.156616,-0.203247,0.850281,-0.459473,-0.513372,-0.0796467,-2.12976
10039773598,0,-2,4,7,-5,-1,-8,-1,10039779732,0.293457,-0.617188,0.847656,10039779732,6.375,-16.4375,68.125,10039779732,0.158997,-0.20282,0.844482,-0.469543,-0.515961,-0.0781537,-2.1061
10039795990,-1,-1,-2,-6,-8,-22,-4,0,10039779732,0.293457,-0.617188,0.847656,10039779732,6.375,-16.4375,68.125,10039779732,0.158997,-0.20282,0.844482,-0.469543,-0.515961,-0.0781537,-2.1061
10039795990,-2,-3,0,-2,6,32,-1,-5,10039779732,0.293457,-0.617188,0.847656,10039779732,6.375,-16.4375,68.125,10039779732,0.158997,-0.20282,0.844482,-0.469543,-0.515961,-0.0781537,-2.1061
10039796780,0,-2,-2,-6,6,-12,4,1,10039779732,0.293457,-0.617188,0.847656,10039779732,6.375,-16.4375,68.125,10039779732,0.158997,-0.20282,0.844482,-0.469543,-0.515961,-0.0781537,-2.1061
10039796780,-3,-2,-1,-2,-15,-25,-4,-1,10039797602,0.293457,-0.647949,0.850098,10039797602,-1.9375,-18.25,76.0625,10039797602,0.162109,-0.203796,0.837402,-0.48053,-0.521921,-0.0757134,-2.07942
10039810277,0,0,-2,-1,4,-1,1,1,10039797602,0.293457,-0.647949,0.850098,10039797602,-1.9375,-18.25,76.0625,10039797602,0.162109,-0.203796,0.837402,-0.48053,-0.521921,-0.0757134,-2.07942
10039810277,-3,0,-3,-1,-5,-9,-5,-3,10039797602,0.293457,-0.647949,0.850098,10039797602,-1.9375,-18.25,76.0625,10039797602,0.162109,-0.203796,0.837402,-0.48053,-0.521921,-0.0757134,-2.07942
10039811031,1,-3,-2,2,0,11,-6,3,10039797602,0.293457,-0.647949,0.850098,10039797602,-1.9375,-18.25,76.0625,10039797602,0.162109,-0.203796,0.837402,-0.48053,-0.521921,-0.0757134,-2.07942
10039811031,-2,-2,-3,-2,-20,13,3,-2,10039817179,0.259766,-0.666016,0.877441,10039817179,-19.125,-21.4375,81.4375,10039817179,0.166504,-0.207214,0.829102,-0.491882,-0.533712,-0.0723101,-2.05092
10039832934,2,-2,0,0,12,23,14,4,10039817179,0.259766,-0.666016,0.877441,10039817179,-19.125,-21.4375,81.4375,10039817179,0.166504,-0.207214,0.829102,-0.491882,-0.533712,-0.0723101,-2.05092
10039832934,0,0,-1,-3,3,-25,-6,-3,10039817179,0.259766,-0.666016,0.877441,10039817179,-19.125,-21.4375,81.4375,10039817179,0.166504,-0.207214,0.829102,-0.491882,-0.533712,-0.0723101,-2.05092
10039833682,-1,-1,-1,-1,3,12,0,-2,10039817179,0.259766,-0.666016,0.877441,10039817179,-19.125,-21.4375,81.4375,10039817179,0.166504,-0.207214,0.829102,-0.491882,-0.533712,-0.0723101,-2.05092
10039833682,2,2,-1,-4,6,1,12,1,10039839882,0.255859,-0.693848,0.901855,10039839882,-24.1875,-26.5,90.0625,10039839882,0.171692,-0.211121,0.819458,-0.504395,-0.547356,-0.0684659,-2.01883
10039856027,0,-2,0,-2,-28,-9,-1,-1,10039839882,0.255859,-0.693848,0.901855,10039839882,-24.1875,-26.5,90.0625,10039839882,0.171692,-0.211121,0.819458,-0.504395,-0.547356,-0.0684659,-2.01883
10039856027,1,-4,-2,-5,-1,9,5,3,10039839882,0.255859,-0.693848,0.901855,10039839882,-24.1875,-26.5,90.0625,10039839882,0.171692,-0.211121,0.819458,-0.504395,-0.547356,-0.0684659,-2.01883
10039856744,-3,0,1,2,-3,2,0,2,10039839882,0.255859,-0.693848,0.901855,10039839882,-24.1875,-26.5,90.0625,10039839882,0.171692,-0.211121,0.819458,-0.504395,-0.547356,-0.0684659,-2.01883
10039856744,0,-2,-5,-1,1,-15,2,2,10039857576,0.270996,-0.667969,0.92334,10039857576,-16.5625,-32.3125,99.625,10039857576,0.176575,-0.213074,0.809021,-0.518555,-0.557421,-0.0647698,-1.98305
10039869719,-3,-4,-2,-1,0,-12,0,0,10039857576,0.270996,-0.667969,0.92334,10039857576,-16.5625,-32.3125,99.625,10039857576,0.176575,-0.213074,0.809021,-0.518555,-0.557421,-0.0647698,-1.98305
10039869719,-4,1,3,0,-12,2,-5,-7,10039857576,0.270996,-0.667969,0.92334,10039857576,-16.5625,-32.3125,99.625,10039857576,0.176575,-0.213074,0.809021,-0.518555,-0.557421,-0.0647698,-1.98305
10039877995,0,0,-5,1,-11,13,2,0,10039857576,0.270996,-0.667969,0.92334,10039857576,-16.5625,-32.3125,99.625,10039857576,0.176575,-0.213074,0.809021,-0.518555,-0.557421,-0.0647698,-1.98305
10039877995,1,2,5,-2,25,-9,8,-1,10039878668,0.274902,-0.623047,0.913086,10039878668,-10.875,-36.625,105.938,10039878668,0.17926,-0.214233,0.797852,-0.534241,-0.563634,-0.0571729,-1.94499
10039892934,-2,-3,-4,-2,10,2,-4,-2,10039878668,0.274902,-0.623047,0.913086,10039878668,-10.875,-36.625,105.938,10039878668,0.17926,-0.214233,0.797852,-0.534241,-0.563634,-0.0571729,-1.94499
10039892934,2,-2,-3,-2,-20,-1,-1,0,10039878668,0.274902,-0.623047,0.913086,10039878668,-10.875,-36.625,105.938,10039878668,0.17926,-0.214233,0.797852,-0.534241,-0.563634,-0.0571729,-1.94499
10039893680,-3,2,3,-1,7,-19,-4,-4,10039878668,0.274902,-0.623047,0.913086,10039878668,-10.875,-36.625,105.938,10039878668,0.17926,-0.214233,0.797852,-0.534241,-0.563634,-0.0571729,-1.94499
10039893680,-3,-1,-5,0,-12,0,-1,0,10039899870,0.280762,-0.556152,0.93457,10039899870,-14.125,-39.9375,114.688,10039899870,0.182312,-0.215576,0.785278,-0.551025,-0.570596,-0.0487748,-1.90356
10039916125,-1,-3,-5,-2,-6,-10,-6,-1,10039899870,0.280762,-0.556152,0.93457,10039899870,-14.125,-39.9375,114.688,10039899870,0.182312,-0.215576,0.785278,-0.551025,-0.570596,-0.0487748,-1.90356
10039916125,-1,-1,-2,-4,1,1,0,-1,10039899870,0.280762,-0.556152,0.93457,10039899870,-14.125,-39.9375,114.688,10039899870,0.182312,-0.215576,0.785278,-0.551025,-0.570596,-0.0487748,-1.90356
10039916787,0,0,0,-5,-6,3,0,0,10039899870,0.280762,-0.556152,0.93457,10039899870,-14.125,-39.9375,114.688,10039899870,0.182312,-0.215576,0.785278,-0.551025,-0.570596,-0.0487748,-1.90356
10039916787,0,-2,-4,-2,-5,3,-1,1,10039917674,0.306641,-0.547852,0.925781,10039917674,-25.5,-44.625,127.875,10039917674,0.186523,-0.218201,0.770569,-0.569031,-0.581138,-0.0391425,-1.85772
10039929780,-5,-1,1,1,-2,-6,-3,-1,10039917674,0.306641,-0.547852,0.925781,10039917674,-25.5,-44.625,127.875,10039917674,0.186523,-0.218201,0.770569,-0.569031,-0.581138,-0.0391425,-1.85772
10039929780,-2,-2,0,1,11,6,-2,0,10039917674,0.306641,-0.547852,0.925781,10039917674,-25.5,-44.625,127.875,10039917674,0.186523,-0.218201,0.770569,-0.569031,-0.581138,-0.0391425,-1.85772
10039938079,0,-1,-1,-2,-11,-6,-1,-2,10039917674,0.306641,-0.547852,0.925781,10039917674,-25.5,-44.625,127.875,10039917674,0.186523,-0.218201,0.770569,-0.569031,-0.581138,-0.0391425,-1.85772
10039938079,-1,-1,1,0,15,2,-4,-2,10039938691,0.356445,-0.557617,0.94043,10039938691,-38.1875,-45.1875,143.375,10039938691,0.191467,-0.222656,0.753357,-0.588379,-0.59558,-0.026477,-1.80733
10039952840,-3,-2,0,-2,-6,-3,-6,-2,10039938691,0.356445,-0.557617,0.94043,10039938691,-38.1875,-45.1875,143.375,10039938691,0.191467,-0.222656,0.753357,-0.588379,-0.59558,-0.026477,-1.80733
10039952840,0,-2,-2,5,0,-3,-3,-1,10039938691,0.356445,-0.557617,0.94043,10039938691,-38.1875,-45.1875,143.375,10039938691,0.191467,-0.222656,0.753357,-0.588379,-0.59558,-0.026477,-1.80733
10039953627,-2,-1,-3,2,-3,2,-9,-3,10039938691,0.356445,-0.557617,0.94043,10039938691,-38.1875,-45.1875,143.375,10039938691,0.191467,-0.222656,0.753357,-0.588379,-0.59558,-0.026477,-1.80733
10039953627,0,1,1,-1,-1,11,0,1,10039959912,0.38623,-0.594727,0.925781,10039959912,-33.6875,-43.625,151.25,10039959912,0.195435,-0.226807,0.734985,-0.608398,-0.608017,-0.0113057,-1.75514
10039976167,1,1,-1,-4,10,9,6,2,10039959912,0.38623,-0.594727,0.925781,10039959912,-33.6875,-43.625,151.25,10039959912,0.195435,-0.226807,0.734985,-0.608398,-0.608017,-0.0113057,-1.75514
10039976167,-2,-4,-3,-3,-12,-13,-2,0,10039959912,0.38623,-0.594727,0.925781,10039959912,-33.6875,-43.625,151.25,10039959912,0.195435,-0.226807,0.734985,-0.608398,-0.608017,-0.0113057,-1.75514
10039976807,-3,-2,0,-5,6,-3,7,-4,10039959912,0.38623,-0.594727,0.925781,10039959912,-33.6875,-43.625,151.25,10039959912,0.195435,-0.226807,0.734985,-0.608398,-0.608017,-0.0113057,-1.75514
10039976807,-3,0,0,0,-4,5,-15,-5,10039977629,0.404297,-0.615234,0.944336,10039977629,-24.25,-41.4375,152.562,10039977629,0.198059,-0.229736,0.716431,-0.628296,-0.616353,0.00489362,-1.70328
10039989855,2,1,2,-1,3,-3,3,-2,10039977629,0.404297,-0.615234,0.944336,10039977629,-24.25,-41.4375,152.562,10039977629,0.198059,-0.229736,0.716431,-0.628296,-0.616353,0.00489362,-1.70328
10039989855,0,0,-2,2,6,2,-3,0,10039977629,0.404297,-0.615234,0.944336,10039977629,-24.25,-41.4375,152.562,10039977629,0.198059,-0.229736,0.716431,-0.628296,-0.616353,0.00489362,-1.70328
10039997994,-1,0,-4,0,-9,-18,3,1,10039977629,0.404297,-0.615234,0.944336,10039977629,-24.25,-41.4375,152.562,10039977629,0.198059,-0.229736,0.716431,-0.628296,-0.616353,0.00489362,-1.70328
10039997994,-1,-1,0,2,-7,7,2,-1,10039998710,0.347168,-0.568359,0.944824,10039998710,-17.1875,-41.0625,151.875,10039998710,0.199463,-0.231628,0.697693,-0.647888,-0.620955,0.0218127,-1.65176
10040012917,-2,-1,3,0,6,-3,-2,-1,10039998710,0.347168,-0.568359,0.944824,10039998710,-17.1875,-41.0625,151.875,10039998710,0.199463,-0.231628,0.697693,-0.647888,-0.620955,0.0218127,-1.65176
10040012917,-4,0,-2,1,4,-4,5,0,10039998710,0.347168,-0.568359,0.944824,10039998710,-17.1875,-41.0625,151.875,10039998710,0.199463,-0.231628,0.697693,-0.647888,-0.620955,0.0218127,-1.65176
10040013710,1,-1,-2,-2,-9,-8,-3,3,10039998710,0.347168,-0.568359,0.944824,10039998710,-17.1875,-41.0625,151.875,10039998710,0.199463,-0.231628,0.697693,-0.647888,-0.620955,0.0218127,-1.65176
10040013710,-1,0,-3,-4,-5,-3,1,-2,10040019884,0.301758,-0.463379,0.95166,10040019884,-17.5,-48.8125,163.812,10040019884,0.20105,-0.232788,0.676819,-0.668823,-0.624254,0.0392496,-1.59537
10040036074,-1,-1,-3,-2,-3,0,-4,-2,10040019884,0.301758,-0.463379,0.95166,10040019884,-17.5,-48.8125,163.812,10040019884,0.20105,-0.232788,0.676819,-0.668823,-0.624254,0.0392496,-1.59537
10040036074,-1,0,-1,4,0,6,6,0,10040019884,0.301758,-0.463379,0.95166,10040019884,-17.5,-48.8125,163.812,10040019884,0.20105,-0.232788,0.676819,-0.668823,-0.624254,0.0392496,-1.59537
10040036772,1,-4,-3,-4,3,3,1,1,10040019884,0.301758,-0.463379,0.95166,10040019884,-17.5,-48.8125,163.812,10040019884,0.20105,-0.232788,0.676819,-0.668823,-0.624254,0.0392496,-1.59537
10040036772,-2,0,8,1,37,-5,-1,-2,10040037668,0.327148,-0.380371,0.966797,10040037668,-30.1875,-56.5625,179.188,10040037668,0.204102,-0.234619,0.652771,-0.690796,-0.630155,0.0577168,-1.53304
10040049723,-4,-1,-3,2,-4,1,-1,-3,10040037668,0.327148,-0.380371,0.966797,10040037668,-30.1875,-56.5625,179.188,10040037668,0.204102,-0.234619,0.652771,-0.690796,-0.630155,0.0577168,-1.53304
10040049723,-2,1,0,-4,-17,6,-1,-2,10040037668,0.327148,-0.380371,0.966797,10040037668,-30.1875,-56.5625,179.188,10040037668,0.204102,-0.234619,0.652771,-0.690796,-0.630155,0.0577168,-1.53304
10040057887,-2,-2,-4,2,11,6,-1,-1,10040037668,0.327148,-0.380371,0.966797,10040037668,-30.1875,-56.5625,179.188,10040037668,0.204102,-0.234619,0.652771,-0.690796,-0.630155,0.0577168,-1.53304
10040057887,-1,-1,-1,-2,-21,6,7,3,10040058668,0.32666,-0.375977,1.00391,10040058668,-54.8125,-66.3125,181.188,10040058668,0.210815,-0.237732,0.626404,-0.711792,-0.643008,0.0743888,-1.46813
10040072759,0,-1,-3,-2,-3,-4,-4,-4,10040058668,0.32666,-0.375977,1.00391,10040058668,-54.8125,-66.3125,181.188,10040058668,0.210815,-0.237732,0.626404,-0.711792,-0.643008,0.0743888,-1.46813
10040072759,0,-2,-2,1,-22,-5,-5,-1,10040058668,0.32666,-0.375977,1.00391,10040058668,-54.8125,-66.3125,181.188,10040058668,0.210815,-0.237732,0.626404,-0.711792,-0.643008,0.0743888,-1.46813
10040073576,-1,-3,-2,0,-1,1,-5,-3,10040058668,0.32666,-0.375977,1.00391,10040058668,-54.8125,-66.3125,181.188,10040058668,0.210815,-0.237732,0.626404,-0.711792,-0.643008,0.0743888,-1.46813
10040073576,-2,-1,-2,-6,1,4,2,-1,10040079673,0.253906,-0.48291,1.00342,10040079673,-72.3125,-76.5625,173.625,10040079673,0.221008,-0.241211,0.59906,-0.730835,-0.661638,0.0878894,-1.40349
10040096049,2,1,1,-1,14,-5,-11,1,10040079673,0.253906,-0.48291,1.00342,10040079673,-72.3125,-76.5625,173.625,10040079673,0.221008,-0.241211,0.59906,-0.730835,-0.661638,0.0878894,-1.40349
10040096049,-1,0,-3,-5,-13,1,1,1,10040079673,0.253906,-0.48291,1.00342,10040079673,-72.3125,-76.5625,173.625,10040079673,0.221008,-0.241211,0.59906,-0.730835,-0.661638,0.0878894,-1.40349
10040096774,-2,-2,1,-4,2,-1,0,-2,10040079673,0.253906,-0.48291,1.00342,10040079673,-72.3125,-76.5625,173.625,10040079673,0.221008,-0.241211,0.59906,-0.730835,-0.661638,0.0878894,-1.40349
10040096774,-4,-2,-1,-2,-5,-3,-3,-1,10040097587,0.243164,-0.5,1.00195,10040097587,-61.75,-87.25,178.125,10040097587,0.230469,-0.242004,0.570435,-0.750305,-0.675236,0.100388,-1.33538
10040109666,1,-4,0,-2,-6,1,2,2,10040097587,0.243164,-0.5,1.00195,10040097587,-61.75,-87.25,178.125,10040097587,0.230469,-0.242004,0.570435,-0.750305,-0.675236,0.100388,-1.33538
10040109666,1,3,1,-1,15,-6,-7,-2,10040097587,0.243164,-0.5,1.00195,10040097587,-61.75,-87.25,178.125,10040097587,0.230469,-0.242004,0.570435,-0.750305,-0.675236,0.100388,-1.33538
10040117806,-1,-1,0,3,1,2,-2,-2,10040097587,0.243164,-0.5,1.00195,10040097587,-61.75,-87.25,178.125,10040097587,0.230469,-0.242004,0.570435,-0.750305,-0.675236,0.100388,-1.33538
10040117806,0,1,-4,1,-3,-8,-1,-2,10040118649,0.319824,-0.462402,0.993164,10040118649,-39,-98.0625,185.375,10040118649,0.237488,-0.238892,0.54071,-0.770813,-0.679464,0.111689,-1.26294
10040132787,0,0,-1,-5,-9,3,8,-1,10040118649,0.319824,-0.462402,0.993164,10040118649,-39,-98.0625,185.375,10040118649,0.237488,-0.238892,0.54071,-0.770813,-0.679464,0.111689,-1.26294
10040132787,-1,-1,1,-1,7,9,1,1,10040118649,0.319824,-0.462402,0.993164,10040118649,-39,-98.0625,185.375,10040118649,0.237488,-0.238892,0.54071,-0.770813,-0.679464,0.111689,-1.26294
10040133578,-1,0,-1,-2,2,-3,5,1,10040118649,0.319824,-0.462402,0.993164,10040118649,-39,-98.0625,185.375,10040118649,0.237488,-0.238892,0.54071,-0.770813,-0.679464,0.111689,-1.26294
10040133578,-2,-8,-6,-1,-13,-4,-3,-3,10040139694,0.333984,-0.424805,1.021,10040139694,-25.4375,-99.25,193.188,10040139694,0.242065,-0.234253,0.509705,-0.791687,-0.677599,0.124467,-1.18798
10040156169,-1,3,0,0,-2,12,-2,-1,10040139694,0.333984,-0.424805,1.021,10040139694,-25.4375,-99.25,193.188,10040139694,0.242065,-0.234253,0.509705,-0.791687,-0.677599,0.124467,-1.18798
10040156169,0,-1,-2,-2,2,-30,-14,-9,10040139694,0.333984,-0.424805,1.021,10040139694,-25.4375,-99.25,193.188,10040139694,0.242065,-0.234253,0.509705,-0.791687,-0.677599,0.124467,-1.18798
10040156848,0,-1,-3,-4,-17,19,2,0,10040139694,0.333984,-0.424805,1.021,10040139694,-25.4375,-99.25,193.188,10040139694,0.242065,-0.234253,0.509705,-0.791687,-0.677599,0.124467,-1.18798
10040156848,3,-1,2,1,15,4,-2,0,10040157637,0.248047,-0.37207,1.04443,10040157637,-25.125,-99.375,200.188,10040157637,0.245728,-0.229553,0.476929,-0.812073,-0.673937,0.138885,-1.11078
10040178755,-2,-2,1,0,3,-6,-1,2,10040157637,0.248047,-0.37207,1.04443,10040157637,-25.125,-99.375,200.188,10040157637,0.245728,-0.229553,0.476929,-0.812073,-0.673937,0.138885,-1.11078
10040178755,-3,-1,-2,1,1,7,5,1,10040157637,0.248047,-0.37207,1.04443,10040157637,-25.125,-99.375,200.188,10040157637,0.245728,-0.229553,0.476929,-0.812073,-0.673937,0.138885,-1.11078
10040179306,0,-2,1,-2,1,-4,-6,-4,10040157637,0.248047,-0.37207,1.04443,10040157637,-25.125,-99.375,200.188,10040157637,0.245728,-0.229553,0.476929,-0.812073,-0.673937,0.138885,-1.11078
10040179306,1,0,-5,0,-14,-5,-4,-1,10040180175,0.183105,-0.320801,0.98584,10040180175,-34.6875,-104.938,209.062,10040180175,0.250427,-0.224976,0.441467,-0.831726,-0.672004,0.15373,-1.02972
10040192943,0,-1,-1,0,-10,-4,0,-2,10040180175,0.183105,-0.320801,0.98584,10040180175,-34.6875,-104.938,209.062,10040180175,0.250427,-0.224976,0.441467,-0.831726,-0.672004,0.15373,-1.02972
10040192943,-2,-2,-3,-4,9,-10,-5,-1,10040180175,0.183105,-0.320801,0.98584,10040180175,-34.6875,-104.938,209.062,10040180175,0.250427,-0.224976,0.441467,-0.831726,-0.672004,0.15373,-1.02972
10040193601,-2,0,-2,0,2,4,0,1,10040180175,0.183105,-0.320801,0.98584,10040180175,-34.6875,-104.938,209.062,10040180175,0.250427,-0.224976,0.441467,-0.831726,-0.672004,0.15373,-1.02972
10040193601,0,-1,-1,-2,-2,-10,-4,-1,10040199898,0.174805,-0.30127,0.925293,10040199898,-42.8125,-113.125,216.688,10040199898,0.256165,-0.219849,0.403442,-0.850464,-0.671126,0.168041,-0.944615
10040216199,-1,1,-1,-4,2,11,4,3,10040199898,0.174805,-0.30127,0.925293,10040199898,-42.8125,-113.125,216.688,10040199898,0.256165,-0.219849,0.403442,-0.850464,-0.671126,0.168041,-0.944615
10040216199,-2,-4,-2,0,-8,-18,-2,-1,10040199898,0.174805,-0.30127,0.925293,10040199898,-42.8125,-113.125,216.688,10040199898,0.256165,-0.219849,0.403442,-0.850464,-0.671126,0.168041,-0.944615
10040216828,1,2,2,2,5,11,2,0,10040199898,0.174805,-0.30127,0.925293,10040199898,-42.8125,-113.125,216.688,10040199898,0.256165,-0.219849,0.403442,-0.850464,-0.671126,0.168041,-0.944615
10040216828,-4,1,-5,-4,-6,-7,-4,-3,10040217657,0.149902,-0.305664,0.945312,10040217657,-46.5,-123.5,221.188,10040217657,0.262512,-0.213257,0.363281,-0.868103,-0.669776,0.180505,-0.85561
10040238676,1,-2,0,-2,-3,-2,4,-3,10040217657,0.149902,-0.305664,0.945312,10040217657,-46.5,-123.5,221.188,10040217657,0.262512,-0.213257,0.363281,-0.868103,-0.669776,0.180505,-0.85561
10040238676,-1,-1,-2,2,2,1,-4,-4,10040217657,0.149902,-0.305664,0.945312,10040217657,-46.5,-123.5,221.188,10040217657,0.262512,-0.213257,0.363281,-0.868103,-0.669776,0.180505,-0.85561
10040239355,-1,2,1,-3,10,5,1,-2,10040217657,0.149902,-0.305664,0.945312,10040217657,-46.5,-123.5,221.188,10040217657,0.262512,-0.213257,0.363281,-0.868103,-0.669776,0.180505,-0.85561
10040239355,0,-1,-2,-6,-18,-27,-6,-1,10040240161,0.0966797,-0.344727,1.01221,10040240161,-44.25,-132.625,226.5,10040240161,0.268311,-0.204956,0.321228,-0.884766,-0.665876,0.191466,-0.762921
10040252986,-2,-1,-1,3,-8,-19,-5,-4,10040240161,0.0966797,-0.344727,1.01221,10040240161,-44.25,-132.625,226.5,10040240161,0.268311,-0.204956,0.321228,-0.884766,-0.665876,0.191466,-0.762921
10040252986,0,-2,-1,-1,23,32,4,1,10040240161,0.0966797,-0.344727,1.01221,10040240161,-44.25,-132.625,226.5,10040240161,0.268311,-0.204956,0.321228,-0.884766,-0.665876,0.191466,-0.762921
10040253615,-1,-3,1,-1,-12,6,-2,-4,10040240161,0.0966797,-0.344727,1.01221,10040240161,-44.25,-132.625,226.5,10040240161,0.268311,-0.204956,0.321228,-0.884766,-0.665876,0.191466,-0.762921
10040253615,-4,-2,-1,3,11,-7,10,-4,10040259903,0.0810547,-0.393066,1.02832,10040259903,-29.3125,-140.75,224.938,10040259903,0.271851,-0.194092,0.27887,-0.900391,-0.655872,0.19921,-0.668699
10040276032,-4,-1,-2,-4,-2,-6,-2,0,10040259903,0.0810547,-0.393066,1.02832,10040259903,-29.3125,-140.75,224.938,10040259903,0.271851,-0.194092,0.27887,-0.900391,-0.655872,0.19921,-0.668699
10040276032,-2,2,1,-1,4,3,3,-3,10040259903,0.0810547,-0.393066,1.02832,10040259903,-29.3125,-140.75,224.938,10040259903,0.271851,-0.194092,0.27887,-0.900391,-0.655872,0.19921,-0.668699
10040276793,-2,-2,-4,2,6,-5,-6,-2,10040259903,0.0810547,-0.393066,1.02832,10040259903,-29.3125,-140.75,224.938,10040259903,0.271851,-0.194092,0.27887,-0.900391,-0.655872,0.19921,-0.668699
10040276793,-2,-2,-1,0,-7,-3,-3,-1,10040277632,0.0253906,-0.404785,0.989746,10040277632,-9.875,-145.5,222.562,10040277632,0.272156,-0.181213,0.236633,-0.914978,-0.638727,0.204227,-0.573934
10040298750,-1,1,-1,2,-1,-4,4,-2,10040277632,0.0253906,-0.404785,0.989746,10040277632,-9.875,-145.5,222.562,10040277632,0.272156,-0.181213,0.236633,-0.914978,-0.638727,0.204227,-0.573934
10040298750,1,0,1,-3,-2,24,-7,-1,10040277632,0.0253906,-0.404785,0.989746,10040277632,-9.875,-145.5,222.562,10040277632,0.272156,-0.181213,0.236633,-0.914978,-0.638727,0.204227,-0.573934
10040299289,-2,0,-2,2,-5,-45,7,3,10040277632,0.0253906,-0.404785,0.989746,10040277632,-9.875,-145.5,222.562,10040277632,0.272156,-0.181213,0.236633,-0.914978,-0.638727,0.204227,-0.573934
10040299289,2,1,0,-4,-2,10,2,2,10040300130,-0.0307617,-0.341797,0.947266,10040300130,0.375,-158.312,220.562,10040300130,0.270691,-0.165527,0.193787,-0.928345,-0.617155,0.203829,-0.47677
10040312863,-1,-1,-4,2,3,8,3,-1,10040300130,-0.0307617,-0.341797,0.947266,10040300130,0.375,-158.312,220.562,10040300130,0.270691,-0.165527,0.193787,-0.928345,-0.617155,0.203829,-0.47677
10040312863,2,0,-2,0,-1,9,0,3,10040300130,-0.0307617,-0.341797,0.947266,10040300130,0.375,-158.312,220.562,10040300130,0.270691,-0.165527,0.193787,-0.928345,-0.617155,0.203829,-0.47677
10040313655,-2,-1,-3,-1,-6,-15,-4,1,10040300130,-0.0307617,-0.341797,0.947266,10040300130,0.375,-158.312,220.562,10040300130,0.270691,-0.165527,0.193787,-0.928345,-0.617155,0.203829,-0.47677
10040313655,0,-1,2,-1,0,9,6,-1,10040319905,0.0419922,-0.273438,0.907227,10040319905,6.8125,-175,221.062,10040319905,0.268188,-0.146484,0.149902,-0.940308,-0.593194,0.196336,-0.376362
10040336085,-3,-3,-4,-1,0,-11,-20,-5,10040319905,0.0419922,-0.273438,0.907227,10040319905,6.8125,-175,221.062,10040319905,0.268188,-0.146484,0.149902,-0.940308,-0.593194,0.196336,-0.376362
10040336085,-3,-2,0,-4,-8,-23,-8,-3,10040319905,0.0419922,-0.273438,0.907227,10040319905,6.8125,-175,221.062,10040319905,0.268188,-0.146484,0.149902,-0.940308,-0.593194,0.196336,-0.376362
10040336892,0,-1,-2,3,1,-5,-5,4,10040319905,0.0419922,-0.273438,0.907227,10040319905,6.8125,-175,221.062,10040319905,0.268188,-0.146484,0.149902,-0.940308,-0.593194,0.196336,-0.376362
10040336892,-4,-3,-3,3,1,-15,-19,-1,10040337668,0.181152,-0.213867,0.911621,10040337668,-0.6875,-182.562,222.312,10040337668,0.266296,-0.125671,0.10498,-0.94989,-0.57212,0.18387,-0.274368
10040358508,-5,-2,-1,-1,-7,9,-34,-18,10040337668,0.181152,-0.213867,0.911621,10040337668,-0.6875,-182.562,222.312,10040337668,0.266296,-0.125671,0.10498,-0.94989,-0.57212,0.18387,-0.274368
10040358508,-1,2,1,3,3,10,20,1,10040337668,0.181152,-0.213867,0.911621,10040337668,-0.6875,-182.562,222.312,10040337668,0.266296,-0.125671,0.10498,-0.94989,-0.57212,0.18387,-0.274368
10040359267,2,0,0,3,-7,-27,12,4,10040337668,0.181152,-0.213867,0.911621,10040337668,-0.6875,-182.562,222.312,10040337668,0.266296,-0.125671,0.10498,-0.94989,-0.57212,0.18387,-0.274368
10040359267,-2,-1,-2,3,17,50,16,3,10040360088,0.179199,-0.261719,0.86377,10040360088,-8.8125,-177.375,218.562,10040360088,0.26532,-0.105469,0.0604858,-0.956482,-0.556193,0.170486,-0.175092
10040372176,8,4,1,0,-3,32,1,9,10040360088,0.179199,-0.261719,0.86377,10040360088,-8.8125,-177.375,218.562,10040360088,0.26532,-0.105469,0.0604858,-0.956482,-0.556193,0.170486,-0.175092
10040372176,-3,-3,0,-2,-2,-17,-1,-5,10040380338,0.18457,-0.285645,0.842285,10040380338,-6.4375,-178,217.812,10040380338,0.263428,-0.0848389,0.0159302,-0.960815,-0.541135,0.155259,-0.0763006
10040381102,-3,-2,-2,-6,-10,-14,-5,-7,10040380338,0.18457,-0.285645,0.842285,10040380338,-6.4375,-178,217.812,10040380338,0.263428,-0.0848389,0.0159302,-0.960815,-0.541135,0.155259,-0.0763006
10040381102,3,1,-2,1,-3,5,28,8,10040380338,0.18457,-0.285645,0.842285,10040380338,-6.4375,-178,217.812,10040380338,0.263428,-0.0848389,0.0159302,-0.960815,-0.541135,0.155259,-0.0763006
10040395992,1,-3,-2,-3,-5,-2,23,15,10040380338,0.18457,-0.285645,0.842285,10040380338,-6.4375,-178,217.812,10040380338,0.263428,-0.0848389,0.0159302,-0.960815,-0.541135,0.155259,-0.0763006
10040395992,-2,0,2,-1,3,12,6,-2,10040396745,0.262207,-0.291504,0.85498,10040396745,7.3125,-176.625,210.375,10040396745,0.258789,-0.0636597,-0.0270386,-0.963501,-0.523517,0.137096,0.0193371
10040397581,-1,-1,-2,3,-1,9,-6,-2,10040396745,0.262207,-0.291504,0.85498,10040396745,7.3125,-176.625,210.375,10040396745,0.258789,-0.0636597,-0.0270386,-0.963501,-0.523517,0.137096,0.0193371
10040397581,0,-2,2,1,-3,-8,-7,-1,10040396745,0.262207,-0.291504,0.85498,10040396745,7.3125,-176.625,210.375,10040396745,0.258789,-0.0636597,-0.0270386,-0.963501,-0.523517,0.137096,0.0193371
10040418488,-3,2,1,-8,6,-53,-5,-9,10040396745,0.262207,-0.291504,0.85498,10040396745,7.3125,-176.625,210.375,10040396745,0.258789,-0.0636597,-0.0270386,-0.963501,-0.523517,0.137096,0.0193371
10040418488,-3,0,-3,1,-3,-20,-35,-4,10040419266,0.316895,-0.340332,0.793457,10040419266,26.5,-165.938,197.875,10040419266,0.250793,-0.0435791,-0.0671997,-0.964722,-0.502235,0.118064,0.108769
10040420087,-3,2,20,-2,13,17,-5,-9,10040419266,0.316895,-0.340332,0.793457,10040419266,26.5,-165.938,197.875,10040419266,0.250793,-0.0435791,-0.0671997,-0.964722,-0.502235,0.118064,0.108769
10040420087,-1,1,43,-5,7,0,2,0,10040419266,0.316895,-0.340332,0.793457,10040419266,26.5,-165.938,197.875,10040419266,0.250793,-0.0435791,-0.0671997,-0.964722,-0.502235,0.118064,0.108769
10040432186,-3,8,44,-1,25,-2,2,-3,10040419266,0.316895,-0.340332,0.793457,10040419266,26.5,-165.938,197.875,10040419266,0.250793,-0.0435791,-0.0671997,-0.964722,-0.502235,0.118064,0.108769
10040432186,1,1,-6,-6,43,-28,7,1,10040440326,0.433105,-0.35791,0.790039,10040440326,60.75,-139.688,173.688,10040440326,0.237183,-0.0268555,-0.101624,-0.965759,-0.472315,0.100246,0.185537
10040441111,0,1,-25,1,47,28,-2,-4,10040440326,0.433105,-0.35791,0.790039,10040440326,60.75,-139.688,173.688,10040440326,0.237183,-0.0268555,-0.101624,-0.965759,-0.472315,0.100246,0.185537
10040441111,-2,6,-31,-3,24,-4,-4,-10,10040440326,0.433105,-0.35791,0.790039,10040440326,60.75,-139.688,173.688,10040440326,0.237183,-0.0268555,-0.101624,-0.965759,-0.472315,0.100246,0.185537
10040455982,-1,0,-32,4,-5,26,12,0,10040440326,0.433105,-0.35791,0.790039,10040440326,60.75,-139.688,173.688,10040440326,0.237183,-0.0268555,-0.101624,-0.965759,-0.472315,0.100246,0.185537
10040455982,0,3,-10,0,-15,8,5,1,10040456767,0.328125,-0.250488,0.81543,10040456767,91.6875,-110.562,153.25,10040456767,0.218445,-0.0150757,-0.131348,-0.966919,-0.433497,0.0866467,0.250976
10040457588,1,-4,-5,-1,-22,0,5,1,10040456767,0.328125,-0.250488,0.81543,10040456767,91.6875,-110.562,153.25,10040456767,0.218445,-0.0150757,-0.131348,-0.966919,-0.433497,0.0866467,0.250976
10040457588,-2,-9,-13,-3,-27,-22,-35,-7,10040456767,0.328125,-0.250488,0.81543,10040456767,91.6875,-110.562,153.25,10040456767,0.218445,-0.0150757,-0.131348,-0.966919,-0.433497,0.0866467,0.250976
10040478727,-1,-6,-4,4,-13,16,-8,-3,10040456767,0.328125,-0.250488,0.81543,10040456767,91.6875,-110.562,153.25,10040456767,0.218445,-0.0150757,-0.131348,-0.966919,-0.433497,0.0866467,0.250976
10040478727,1,-6,-3,-2,-27,11,-12,-3,10040479374,0.186523,-0.0644531,0.867676,10040479374,92.375,-99.125,137.562,10040479374,0.199158,-0.00512695,-0.157898,-0.967163,-0.394815,0.0728749,0.309089
10040480163,-1,-5,1,12,-8,-5,0,3,10040479374,0.186523,-0.0644531,0.867676,10040479374,92.375,-99.125,137.562,10040479374,0.199158,-0.00512695,-0.157898,-0.967163,-0.394815,0.0728749,0.309089
10040480163,2,-4,-1,-4,-2,1,-1,4,10040479374,0.186523,-0.0644531,0.867676,10040479374,92.375,-99.125,137.562,10040479374,0.199158,-0.00512695,-0.157898,-0.967163,-0.394815,0.0728749,0.309089
10040492328,-4,-4,-6,-6,-5,-4,11,-5,10040479374,0.186523,-0.0644531,0.867676,10040479374,92.375,-99.125,137.562,10040479374,0.199158,-0.00512695,-0.157898,-0.967163,-0.394815,0.0728749,0.309089
10040492328,-2,-4,1,-1,-17,-44,1,3,10040500534,0.125,0.0957031,1.00635,10040500534,60.75,-89.5,116.562,10040500534,0.184875,0.00457764,-0.180542,-0.966064,-0.367687,0.0579434,0.358757
10040501154,-1,1,5,-8,5,1,-14,-4,10040500534,0.125,0.0957031,1.00635,10040500534,60.75,-89.5,116.562,10040500534,0.184875,0.00457764,-0.180542,-0.966064,-0.367687,0.0579434,0.358757
10040501154,-2,-1,0,0,-7,-5,-3,-1,10040500534,0.125,0.0957031,1.00635,10040500534,60.75,-89.5,116.562,10040500534,0.184875,0.00457764,-0.180542,-0.966064,-0.367687,0.0579434,0.358757
10040516186,1,-2,-8,5,5,-2,2,8,10040500534,0.125,0.0957031,1.00635,10040500534,60.75,-89.5,116.562,10040500534,0.184875,0.00457764,-0.180542,-0.966064,-0.367687,0.0579434,0.358757
10040516186,2,0,5,0,4,19,10,-1,10040516878,0.0683594,0.136719,1.0625,10040516878,21.8125,-79.0625,92.875,10040516878,0.172668,0.0142822,-0.198853,-0.9646,-0.345937,0.0411295,0.399423
10040517673,0,1,3,-5,-7,7,12,1,10040516878,0.0683594,0.136719,1.0625,10040516878,21.8125,-79.0625,92.875,10040516878,0.172668,0.0142822,-0.198853,-0.9646,-0.345937,0.0411295,0.399423
10040517673,1,2,-2,1,-23,-20,-3,0,10040516878,0.0683594,0.136719,1.0625,10040516878,21.8125,-79.0625,92.875,10040516878,0.172668,0.0142822,-0.198853,-0.9646,-0.345937,0.0411295,0.399423
10040538714,-2,0,3,-1,-5,4,2,3,10040516878,0.0683594,0.136719,1.0625,10040516878,21.8125,-79.0625,92.875,10040516878,0.172668,0.0142822,-0.198853,-0.9646,-0.345937,0.0411295,0.399423
10040538714,1,0,6,2,-15,0,-3,1,10040539319,0.0634766,0.0600586,1.06445,10040539319,-16.375,-72.3125,73.1875,10040539319,0.167969,0.0248413,-0.213318,-0.962158,-0.340456,0.0238612,0.432291
10040540165,-1,-1,-8,-3,6,12,-5,1,10040539319,0.0634766,0.0600586,1.06445,10040539319,-16.375,-72.3125,73.1875,10040539319,0.167969,0.0248413,-0.213318,-0.962158,-0.340456,0.0238612,0.432291
10040540165,-3,-1,-11,-1,4,-1,4,-1,10040539319,0.0634766,0.0600586,1.06445,10040539319,-16.375,-72.3125,73.1875,10040539319,0.167969,0.0248413,-0.213318,-0.962158,-0.340456,0.0238612,0.432291
10040552276,3,-1,-12,-6,-11,3,-1,-1,10040539319,0.0634766,0.0600586,1.06445,10040539319,-16.375,-72.3125,73.1875,10040539319,0.167969,0.0248413,-0.213318,-0.962158,-0.340456,0.0238612,0.432291
10040552276,-3,2,-19,-8,6,15,21,3,10040560551,0.0961914,-0.0532227,1.05859,10040560551,-31.625,-66.25,55.125,10040560551,0.167114,0.0358887,-0.224365,-0.959412,-0.343487,0.00612528,0.458406
10040561154,1,1,-12,-5,-6,10,2,0,10040560551,0.0961914,-0.0532227,1.05859,10040560551,-31.625,-66.25,55.125,10040560551,0.167114,0.0358887,-0.224365,-0.959412,-0.343487,0.00612528,0.458406
10040561154,-3,0,-2,-4,-1,2,-17,-8,10040560551,0.0961914,-0.0532227,1.05859,10040560551,-31.625,-66.25,55.125,10040560551,0.167114,0.0358887,-0.224365,-0.959412,-0.343487,0.00612528,0.458406
10040576182,-3,-3,-3,-6,-1,2,-20,-3,10040560551,0.0961914,-0.0532227,1.05859,10040560551,-31.625,-66.25,55.125,10040560551,0.167114,0.0358887,-0.224365,-0.959412,-0.343487,0.00612528,0.458406
10040576182,1,-1,4,-4,-4,-16,3,-1,10040576880,0.117676,-0.155273,1.04346,10040576880,-14.5,-55.4375,40.0625,10040576880,0.164856,0.0452271,-0.232422,-0.95752,-0.343457,-0.00997947,0.478026
10040577573,-2,-3,-3,-3,-1,17,3,-2,10040576880,0.117676,-0.155273,1.04346,10040576880,-14.5,-55.4375,40.0625,10040576880,0.164856,0.0452271,-0.232422,-0.95752,-0.343457,-0.00997947,0.478026
10040577573,1,-2,-3,-3,-4,7,15,4,10040576880,0.117676,-0.155273,1.04346,10040576880,-14.5,-55.4375,40.0625,10040576880,0.164856,0.0452271,-0.232422,-0.95752,-0.343457,-0.00997947,0.478026
10040598651,-1,-6,-9,-1,5,14,-6,-3,10040576880,0.117676,-0.155273,1.04346,10040576880,-14.5,-55.4375,40.0625,10040576880,0.164856,0.0452271,-0.232422,-0.95752,-0.343457,-0.00997947,0.478026
10040598651,-1,-4,-6,2,5,17,0,4,10040599347,0.108398,-0.134766,1.10596,10040599347,10.3125,-42.25,25.125,10040599347,0.158569,0.0513916,-0.237854,-0.956909,-0.334192,-0.0229235,0.491138
10040600090,-4,-5,-1,-2,-21,-40,-18,-2,10040599347,0.108398,-0.134766,1.10596,10040599347,10.3125,-42.25,25.125,10040599347,0.158569,0.0513916,-0.237854,-0.956909,-0.334192,-0.0229235,0.491138
10040600090,-2,-2,4,1,11,12,-9,-3,10040599347,0.108398,-0.134766,1.10596,10040599347,10.3125,-42.25,25.125,10040599347,0.158569,0.0513916,-0.237854,-0.956909,-0.334192,-0.0229235,0.491138
10040612287,-1,-5,13,0,-6,-25,5,4,10040599347,0.108398,-0.134766,1.10596,10040599347,10.3125,-42.25,25.125,10040599347,0.158569,0.0513916,-0.237854,-0.956909,-0.334192,-0.0229235,0.491138
10040612287,-3,-3,14,-1,-7,13,0,-2,10040620514,0.0776367,-0.0429688,1.10889,10040620514,27.375,-30.875,12.0625,10040620514,0.149109,0.0546265,-0.240967,-0.957458,-0.317323,-0.0327504,0.498351
10040621206,1,0,17,2,12,0,10,4,10040620514,0.0776367,-0.0429688,1.10889,10040620514,27.375,-30.875,12.0625,10040620514,0.149109,0.0546265,-0.240967,-0.957458,-0.317323,-0.0327504,0.498351
10040621206,1,1,14,-3,-23,8,3,0,10040620514,0.0776367,-0.0429688,1.10889,10040620514,27.375,-30.875,12.0625,10040620514,0.149109,0.0546265,-0.240967,-0.957458,-0.317323,-0.0327504,0.498351
10040636146,-5,-3,7,1,7,-21,-10,-5,10040620514,0.0776367,-0.0429688,1.10889,10040620514,27.375,-30.875,12.0625,10040620514,0.149109,0.0546265,-0.240967,-0.957458,-0.317323,-0.0327504,0.498351
10040636146,-2,-2,4,3,1,-7,-6,-5,10040636836,0.115723,0.0166016,1.12207,10040636836,19.3125,-23.5,0.5625,10040636836,0.140564,0.0574951,-0.241821,-0.958374,-0.302071,-0.0422335,0.50077
10040637651,0,0,7,-7,2,-4,-6,-1,10040636836,0.115723,0.0166016,1.12207,10040636836,19.3125,-23.5,0.5625,10040636836,0.140564,0.0574951,-0.241821,-0.958374,-0.302071,-0.0422335,0.50077
10040637651,-1,-2,-1,-4,1,-9,5,0,10040636836,0.115723,0.0166016,1.12207,10040636836,19.3125,-23.5,0.5625,10040636836,0.140564,0.0574951,-0.241821,-0.958374,-0.302071,-0.0422335,0.50077
10040658690,-2,-1,-2,3,1,5,6,-5,10040636836,0.115723,0.0166016,1.12207,10040636836,19.3125,-23.5,0.5625,10040636836,0.140564,0.0574951,-0.241821,-0.958374,-0.302071,-0.0422335,0.50077
10040658690,0,-4,0,-3,-6,-27,-20,-4,10040659326,0.150391,-0.0200195,1.14062,10040659326,2.5,-12.6875,-11.125,10040659326,0.135498,0.0599365,-0.240173,-0.959412,-0.293335,-0.0499423,0.498014
