timestamp,emg1,emg2,emg3,emg4,emg5,emg6,emg7,emg8,timestamp_accelerometer,accelerometer-x,accelerometer-y,accelerometer-z,timestamp_gyro,gyro-x,gyro-y,gyro-z,timestamp_orientation,orientation-x,orientation-y,orientation-z,,orientation-w,roll,pitch,yaw
140734799966975,1,0,0,0,0,0,0,0,9919492787,-0.0947266,0.178711,0.991211,9919492787,11.5,-3.8125,-6.5625,9919492787,-0.0908813,0.0335083,0.76239,-0.639771,0.168954,0.0958455,-1.73706
9919493580,-3,-4,-1,0,-2,-2,-1,-8,9919492787,-0.0947266,0.178711,0.991211,9919492787,11.5,-3.8125,-6.5625,9919492787,-0.0908813,0.0335083,0.76239,-0.639771,0.168954,0.0958455,-1.73706
9919493580,3,6,1,2,0,1,0,3,9919492787,-0.0947266,0.178711,0.991211,9919492787,11.5,-3.8125,-6.5625,9919492787,-0.0908813,0.0335083,0.76239,-0.639771,0.168954,0.0958455,-1.73706
9919507787,-1,-5,-3,-7,-1,1,-1,-2,9919492787,-0.0947266,0.178711,0.991211,9919492787,11.5,-3.8125,-6.5625,9919492787,-0.0908813,0.0335083,0.76239,-0.639771,0.168954,0.0958455,-1.73706
9919507787,-1,2,-3,0,-3,2,2,4,9919508579,-0.180664,0.154297,1.00488,9919508579,14.625,-6.25,-0.9375,9919508579,-0.0922852,0.0352783,0.762573,-0.639343,0.173468,0.0957849,-1.73785
9919514634,-3,-2,0,1,2,0,-3,-1,9919508579,-0.180664,0.154297,1.00488,9919508579,14.625,-6.25,-0.9375,9919508579,-0.0922852,0.0352783,0.762573,-0.639343,0.173468,0.0957849,-1.73785
9919514634,-1,-1,1,3,-1,-2,-4,-5,9919508579,-0.180664,0.154297,1.00488,9919508579,14.625,-6.25,-0.9375,9919508579,-0.0922852,0.0352783,0.762573,-0.639343,0.173468,0.0957849,-1.73785
9919522064,2,-1,1,0,-1,0,-1,-1,9919508579,-0.180664,0.154297,1.00488,9919508579,14.625,-6.25,-0.9375,9919508579,-0.0922852,0.0352783,0.762573,-0.639343,0.173468,0.0957849,-1.73785
9919522064,-1,1,-2,-4,1,-1,-3,0,9919530327,-0.179199,0.195312,1.02393,9919530327,24.4375,-8.0625,-0.5,9919530327,-0.0947266,0.0388794,0.762634,-0.638672,0.182121,0.0949638,-1.73858
9919531071,0,2,-3,-1,-2,-2,1,0,9919530327,-0.179199,0.195312,1.02393,9919530327,24.4375,-8.0625,-0.5,9919530327,-0.0947266,0.0388794,0.762634,-0.638672,0.182121,0.0949638,-1.73858
9919531071,-4,-3,0,-9,1,-3,-1,0,9919530327,-0.179199,0.195312,1.02393,9919530327,24.4375,-8.0625,-0.5,9919530327,-0.0947266,0.0388794,0.762634,-0.638672,0.182121,0.0949638,-1.73858
9919544624,1,1,0,3,1,0,3,3,9919530327,-0.179199,0.195312,1.02393,9919530327,24.4375,-8.0625,-0.5,9919530327,-0.0947266,0.0388794,0.762634,-0.638672,0.182121,0.0949638,-1.73858
9919544624,-2,-2,3,0,2,-1,-3,-3,9919552777,-0.0161133,0.219727,0.963379,9919552777,31,-9.8125,-2.625,9919552777,-0.0964966,0.0449219,0.762756,-0.637817,0.19361,0.0900244,-1.73993
9919553586,0,-3,0,0,-2,1,0,-3,9919552777,-0.0161133,0.219727,0.963379,9919552777,31,-9.8125,-2.625,9919552777,-0.0964966,0.0449219,0.762756,-0.637817,0.19361,0.0900244,-1.73993
9919553586,-4,-1,0,-4,-2,-4,-4,-5,9919552777,-0.0161133,0.219727,0.963379,9919552777,31,-9.8125,-2.625,9919552777,-0.0964966,0.0449219,0.762756,-0.637817,0.19361,0.0900244,-1.73993
9919567802,1,0,0,-5,-3,-2,2,-1,9919552777,-0.0161133,0.219727,0.963379,9919552777,31,-9.8125,-2.625,9919552777,-0.0964966,0.0449219,0.762756,-0.637817,0.19361,0.0900244,-1.73993
9919567802,-4,0,-1,4,-3,-2,0,-2,9919568580,-0.00341797,0.26123,0.978027,9919568580,14.1875,-1.9375,-4.4375,9919568580,-0.0975342,0.0482178,0.763062,-0.637085,0.199951,0.0875232,-1.74145
9919574540,0,-2,0,-3,0,2,-3,-1,9919568580,-0.00341797,0.26123,0.978027,9919568580,14.1875,-1.9375,-4.4375,9919568580,-0.0975342,0.0482178,0.763062,-0.637085,0.199951,0.0875232,-1.74145
9919574540,1,-1,-3,1,1,0,0,2,9919568580,-0.00341797,0.26123,0.978027,9919568580,14.1875,-1.9375,-4.4375,9919568580,-0.0975342,0.0482178,0.763062,-0.637085,0.199951,0.0875232,-1.74145
9919582138,-1,1,-1,1,2,1,0,2,9919568580,-0.00341797,0.26123,0.978027,9919568580,14.1875,-1.9375,-4.4375,9919568580,-0.0975342,0.0482178,0.763062,-0.637085,0.199951,0.0875232,-1.74145
9919582138,1,-1,-1,-1,0,-1,-1,-5,9919590314,-0.0859375,0.208496,1.01172,9919590314,6.25,1.6875,0.875,9919590314,-0.0983887,0.0489502,0.762878,-0.637146,0.202212,0.0878533,-1.74103
9919591098,-1,1,-7,-1,-4,-1,0,0,9919590314,-0.0859375,0.208496,1.01172,9919590314,6.25,1.6875,0.875,9919590314,-0.0983887,0.0489502,0.762878,-0.637146,0.202212,0.0878533,-1.74103
9919591098,0,-1,3,0,-8,3,0,2,9919590314,-0.0859375,0.208496,1.01172,9919590314,6.25,1.6875,0.875,9919590314,-0.0983887,0.0489502,0.762878,-0.637146,0.202212,0.0878533,-1.74103
9919604617,-1,0,-1,-2,-1,1,-1,-2,9919590314,-0.0859375,0.208496,1.01172,9919590314,6.25,1.6875,0.875,9919590314,-0.0983887,0.0489502,0.762878,-0.637146,0.202212,0.0878533,-1.74103
9919604617,-1,-4,-4,0,1,0,-2,-5,9919612670,-0.14502,0.175781,1.01709,9919612670,10.25,0.0625,-0.0625,9919612670,-0.0997925,0.0495605,0.762878,-0.636902,0.204976,0.0892471,-1.74117
9919619651,-1,-3,1,-1,2,-3,-1,0,9919612670,-0.14502,0.175781,1.01709,9919612670,10.25,0.0625,-0.0625,9919612670,-0.0997925,0.0495605,0.762878,-0.636902,0.204976,0.0892471,-1.74117
9919619651,1,-1,-1,-6,3,1,1,-2,9919612670,-0.14502,0.175781,1.01709,9919612670,10.25,0.0625,-0.0625,9919612670,-0.0997925,0.0495605,0.762878,-0.636902,0.204976,0.0892471,-1.74117
9919627846,0,1,0,-1,-5,1,-3,2,9919612670,-0.14502,0.175781,1.01709,9919612670,10.25,0.0625,-0.0625,9919612670,-0.0997925,0.0495605,0.762878,-0.636902,0.204976,0.0892471,-1.74117
9919627846,0,0,2,-1,-2,0,0,1,9919628589,-0.114258,0.200684,0.996582,9919628589,15.625,1.1875,-2.9375,9919628589,-0.101807,0.0512085,0.763062,-0.63623,0.210088,0.0903315,-1.74209
9919634615,-1,2,1,-2,-1,3,-4,-2,9919628589,-0.114258,0.200684,0.996582,9919628589,15.625,1.1875,-2.9375,9919628589,-0.101807,0.0512085,0.763062,-0.63623,0.210088,0.0903315,-1.74209
9919634615,-1,-4,-3,6,0,2,-1,-2,9919628589,-0.114258,0.200684,0.996582,9919628589,15.625,1.1875,-2.9375,9919628589,-0.101807,0.0512085,0.763062,-0.63623,0.210088,0.0903315,-1.74209
9919642074,-2,-1,-1,1,-3,-1,-3,-1,9919628589,-0.114258,0.200684,0.996582,9919628589,15.625,1.1875,-2.9375,9919628589,-0.101807,0.0512085,0.763062,-0.63623,0.210088,0.0903315,-1.74209
9919642074,0,-2,0,-4,-1,-1,-2,-4,9919650287,-0.0385742,0.237305,1.00195,9919650287,12.6875,-0.1875,0,9919650287,-0.102844,0.0534668,0.762878,-0.636047,0.2149,0.089018,-1.742
9919651083,1,2,-1,2,-1,-1,0,2,9919650287,-0.0385742,0.237305,1.00195,9919650287,12.6875,-0.1875,0,9919650287,-0.102844,0.0534668,0.762878,-0.636047,0.2149,0.089018,-1.742
9919651083,-1,0,-1,1,5,1,4,1,9919650287,-0.0385742,0.237305,1.00195,9919650287,12.6875,-0.1875,0,9919650287,-0.102844,0.0534668,0.762878,-0.636047,0.2149,0.089018,-1.742
9919664628,1,-2,-3,3,0,-3,-1,-2,9919650287,-0.0385742,0.237305,1.00195,9919650287,12.6875,-0.1875,0,9919650287,-0.102844,0.0534668,0.762878,-0.636047,0.2149,0.089018,-1.742
9919664628,-2,3,1,4,-4,0,-6,1,9919672876,-0.101074,0.206055,0.969727,9919672876,7.1875,-3.6875,-0.9375,9919672876,-0.103271,0.0546875,0.763,-0.635742,0.217305,0.0881723,-1.74263
9919673650,1,-2,-4,-2,3,0,2,1,9919672876,-0.101074,0.206055,0.969727,9919672876,7.1875,-3.6875,-0.9375,9919672876,-0.103271,0.0546875,0.763,-0.635742,0.217305,0.0881723,-1.74263
9919673650,-4,0,-2,1,-2,-3,-2,-2,9919672876,-0.101074,0.206055,0.969727,9919672876,7.1875,-3.6875,-0.9375,9919672876,-0.103271,0.0546875,0.763,-0.635742,0.217305,0.0881723,-1.74263
9919687959,-3,-1,-3,-1,-1,0,2,-2,9919672876,-0.101074,0.206055,0.969727,9919672876,7.1875,-3.6875,-0.9375,9919672876,-0.103271,0.0546875,0.763,-0.635742,0.217305,0.0881723,-1.74263
9919687959,0,-2,-3,-4,-6,-1,0,-1,9919688608,-0.163086,0.26709,0.980469,9919688608,5.75,-6.5,-0.4375,9919688608,-0.104065,0.0559692,0.763062,-0.635376,0.220276,0.0878057,-1.74311
9919694804,0,2,2,-6,4,-1,-2,4,9919688608,-0.163086,0.26709,0.980469,9919688608,5.75,-6.5,-0.4375,9919688608,-0.104065,0.0559692,0.763062,-0.635376,0.220276,0.0878057,-1.74311
9919694804,-4,-5,-1,0,4,-2,-3,-5,9919688608,-0.163086,0.26709,0.980469,9919688608,5.75,-6.5,-0.4375,9919688608,-0.104065,0.0559692,0.763062,-0.635376,0.220276,0.0878057,-1.74311
9919711185,-1,-5,0,1,-3,1,-3,-6,9919688608,-0.163086,0.26709,0.980469,9919688608,5.75,-6.5,-0.4375,9919688608,-0.104065,0.0559692,0.763062,-0.635376,0.220276,0.0878057,-1.74311
9919711185,1,4,-1,1,3,0,0,2,9919711785,-0.100586,0.188477,0.994141,9919711785,17.625,-5.8125,-0.875,9919711785,-0.105103,0.0585327,0.763184,-0.634888,0.225537,0.0862084,-1.74405
9919712634,0,-2,-2,3,-7,0,0,-1,9919711785,-0.100586,0.188477,0.994141,9919711785,17.625,-5.8125,-0.875,9919711785,-0.105103,0.0585327,0.763184,-0.634888,0.225537,0.0862084,-1.74405
9919712634,-1,-2,0,-4,4,-2,-1,-1,9919711785,-0.100586,0.188477,0.994141,9919711785,17.625,-5.8125,-0.875,9919711785,-0.105103,0.0585327,0.763184,-0.634888,0.225537,0.0862084,-1.74405
9919724670,-2,1,0,-3,3,-5,-3,-7,9919711785,-0.100586,0.188477,0.994141,9919711785,17.625,-5.8125,-0.875,9919711785,-0.105103,0.0585327,0.763184,-0.634888,0.225537,0.0862084,-1.74405
9919724670,-2,-1,-3,-1,-2,0,-1,-2,9919732770,-0.012207,0.262207,0.958008,9919732770,22.3125,-5.3125,-8.875,9919732770,-0.106567,0.0628052,0.763916,-0.633362,0.233878,0.0833568,-1.74734
9919733583,-3,-3,-4,-3,-1,-1,-1,-1,9919732770,-0.012207,0.262207,0.958008,9919732770,22.3125,-5.3125,-8.875,9919732770,-0.106567,0.0628052,0.763916,-0.633362,0.233878,0.0833568,-1.74734
9919733583,-2,0,2,-3,-2,-3,0,-1,9919732770,-0.012207,0.262207,0.958008,9919732770,22.3125,-5.3125,-8.875,9919732770,-0.106567,0.0628052,0.763916,-0.633362,0.233878,0.0833568,-1.74734
9919747878,-3,-2,0,-1,-3,-2,-1,-4,9919732770,-0.012207,0.262207,0.958008,9919732770,22.3125,-5.3125,-8.875,9919732770,-0.106567,0.0628052,0.763916,-0.633362,0.233878,0.0833568,-1.74734
9919747878,1,-3,1,1,-3,0,1,1,9919748665,-0.00488281,0.303223,0.946289,9919748665,6.9375,-1.75,-7.6875,9919748665,-0.107056,0.0650024,0.764587,-0.632263,0.237793,0.0816,-1.74998
9919762234,0,0,-3,-4,-4,0,0,0,9919748665,-0.00488281,0.303223,0.946289,9919748665,6.9375,-1.75,-7.6875,9919748665,-0.107056,0.0650024,0.764587,-0.632263,0.237793,0.0816,-1.74998
9919762234,1,-2,-3,-4,-3,-2,-4,-5,9919748665,-0.00488281,0.303223,0.946289,9919748665,6.9375,-1.75,-7.6875,9919748665,-0.107056,0.0650024,0.764587,-0.632263,0.237793,0.0816,-1.74998
9919770973,-2,-1,1,-5,1,0,2,5,9919748665,-0.00488281,0.303223,0.946289,9919748665,6.9375,-1.75,-7.6875,9919748665,-0.107056,0.0650024,0.764587,-0.632263,0.237793,0.0816,-1.74998
9919770973,-1,-2,-1,5,-2,-2,-1,0,9919771733,-0.100098,0.242188,0.98291,9919771733,-2.5,2.3125,-0.625,9919771733,-0.107239,0.0643311,0.764648,-0.632202,0.23699,0.0827539,-1.75001
9919772591,-1,0,-1,0,2,1,0,-1,9919771733,-0.100098,0.242188,0.98291,9919771733,-2.5,2.3125,-0.625,9919771733,-0.107239,0.0643311,0.764648,-0.632202,0.23699,0.0827539,-1.75001
9919772591,0,-1,-2,-4,-4,-1,-2,1,9919771733,-0.100098,0.242188,0.98291,9919771733,-2.5,2.3125,-0.625,9919771733,-0.107239,0.0643311,0.764648,-0.632202,0.23699,0.0827539,-1.75001
9919784798,1,-2,-3,1,-2,1,-3,1,9919771733,-0.100098,0.242188,0.98291,9919771733,-2.5,2.3125,-0.625,9919771733,-0.107239,0.0643311,0.764648,-0.632202,0.23699,0.0827539,-1.75001
9919784798,-2,0,0,-1,4,0,-3,-1,9919792826,-0.151855,0.186035,0.982422,9919792826,3.0625,-0.1875,-1.9375,9919792826,-0.107849,0.0637817,0.764893,-0.631836,0.236905,0.0844873,-1.75067
9919793581,1,-2,0,0,0,1,1,3,9919792826,-0.151855,0.186035,0.982422,9919792826,3.0625,-0.1875,-1.9375,9919792826,-0.107849,0.0637817,0.764893,-0.631836,0.236905,0.0844873,-1.75067
9919793581,-1,0,1,-1,-3,-5,-3,-1,9919792826,-0.151855,0.186035,0.982422,9919792826,3.0625,-0.1875,-1.9375,9919792826,-0.107849,0.0637817,0.764893,-0.631836,0.236905,0.0844873,-1.75067
9919807815,0,-2,2,-3,1,2,-1,1,9919792826,-0.151855,0.186035,0.982422,9919792826,3.0625,-0.1875,-1.9375,9919792826,-0.107849,0.0637817,0.764893,-0.631836,0.236905,0.0844873,-1.75067
9919807815,-1,0,-5,-4,1,-1,2,0,9919808582,-0.0644531,0.239746,0.969727,9919808582,7.0625,-2.5625,-7.9375,9919808582,-0.108215,0.0650024,0.765747,-0.630615,0.23914,0.0838463,-1.75364
9919814626,-2,-1,-2,-3,-1,-4,-2,-3,9919808582,-0.0644531,0.239746,0.969727,9919808582,7.0625,-2.5625,-7.9375,9919808582,-0.108215,0.0650024,0.765747,-0.630615,0.23914,0.0838463,-1.75364
9919814626,0,-1,-3,2,2,3,-3,-1,9919808582,-0.0644531,0.239746,0.969727,9919808582,7.0625,-2.5625,-7.9375,9919808582,-0.108215,0.0650024,0.765747,-0.630615,0.23914,0.0838463,-1.75364
9919830967,-2,-1,-3,-2,-6,-1,-2,0,9919808582,-0.0644531,0.239746,0.969727,9919808582,7.0625,-2.5625,-7.9375,9919808582,-0.108215,0.0650024,0.765747,-0.630615,0.23914,0.0838463,-1.75364
9919830967,0,-2,2,2,-1,1,-3,3,9919831719,-0.0551758,0.26123,0.962891,9919831719,7.9375,-1.1875,-2.6875,9919831719,-0.108887,0.0665894,0.76593,-0.630127,0.242424,0.0829749,-1.75463
9919832583,-2,1,0,0,-1,-6,0,-2,9919831719,-0.0551758,0.26123,0.962891,9919831719,7.9375,-1.1875,-2.6875,9919831719,-0.108887,0.0665894,0.76593,-0.630127,0.242424,0.0829749,-1.75463
9919832583,-1,-2,-3,-1,-5,-2,1,-1,9919831719,-0.0551758,0.26123,0.962891,9919831719,7.9375,-1.1875,-2.6875,9919831719,-0.108887,0.0665894,0.76593,-0.630127,0.242424,0.0829749,-1.75463
9919844751,-2,2,-2,-1,2,-1,0,-2,9919831719,-0.0551758,0.26123,0.962891,9919831719,7.9375,-1.1875,-2.6875,9919831719,-0.108887,0.0665894,0.76593,-0.630127,0.242424,0.0829749,-1.75463
9919844751,-2,-3,-1,-2,0,-2,-1,-1,9919852987,-0.0717773,0.251953,0.96582,9919852987,1.0625,-0.25,1.4375,9919852987,-0.108948,0.0670166,0.765686,-0.63031,0.243177,0.0824504,-1.75399
9919853618,-2,-3,-4,3,-3,-1,-1,-2,9919852987,-0.0717773,0.251953,0.96582,9919852987,1.0625,-0.25,1.4375,9919852987,-0.108948,0.0670166,0.765686,-0.63031,0.243177,0.0824504,-1.75399
9919853618,0,0,4,-2,2,2,1,-2,9919852987,-0.0717773,0.251953,0.96582,9919852987,1.0625,-0.25,1.4375,9919852987,-0.108948,0.0670166,0.765686,-0.63031,0.243177,0.0824504,-1.75399
9919867997,0,1,0,-1,-2,-3,-1,2,9919852987,-0.0717773,0.251953,0.96582,9919852987,1.0625,-0.25,1.4375,9919852987,-0.108948,0.0670166,0.765686,-0.63031,0.243177,0.0824504,-1.75399
9919867997,0,-4,-3,-4,1,-2,1,-7,9919868732,-0.0952148,0.242188,0.959961,9919868732,-0.875,-2.1875,1.75,9919868732,-0.108704,0.0670776,0.765564,-0.630554,0.242983,0.0819386,-1.7536
9919874836,-2,-3,-2,6,-3,-1,-3,-2,9919868732,-0.0952148,0.242188,0.959961,9919868732,-0.875,-2.1875,1.75,9919868732,-0.108704,0.0670776,0.765564,-0.630554,0.242983,0.0819386,-1.7536
9919874836,0,1,-3,2,-2,2,0,-1,9919868732,-0.0952148,0.242188,0.959961,9919868732,-0.875,-2.1875,1.75,9919868732,-0.108704,0.0670776,0.765564,-0.630554,0.242983,0.0819386,-1.7536
9919890796,-3,-1,-1,-3,-1,0,0,-1,9919868732,-0.0952148,0.242188,0.959961,9919868732,-0.875,-2.1875,1.75,9919868732,-0.108704,0.0670776,0.765564,-0.630554,0.242983,0.0819386,-1.7536
9919890796,1,-2,-2,-3,1,1,0,2,9919891599,-0.081543,0.230469,0.96582,9919891599,1.75,-2.375,3.25,9919891599,-0.108521,0.0675659,0.765259,-0.63092,0.243536,0.0809234,-1.75276
9919897115,-3,1,3,-7,2,0,-3,-6,9919891599,-0.081543,0.230469,0.96582,9919891599,1.75,-2.375,3.25,9919891599,-0.108521,0.0675659,0.765259,-0.63092,0.243536,0.0809234,-1.75276
9919897115,-1,1,-3,-4,0,1,2,2,9919891599,-0.081543,0.230469,0.96582,9919891599,1.75,-2.375,3.25,9919891599,-0.108521,0.0675659,0.765259,-0.63092,0.243536,0.0809234,-1.75276
9919904621,0,-1,-1,3,-11,-2,-2,1,9919891599,-0.081543,0.230469,0.96582,9919891599,1.75,-2.375,3.25,9919891599,-0.108521,0.0675659,0.765259,-0.63092,0.243536,0.0809234,-1.75276
9919904621,-1,1,0,0,6,-2,-2,-1,9919912813,-0.0507812,0.233398,0.955566,9919912813,2.375,0.375,-0.625,9919912813,-0.108521,0.0679932,0.765259,-0.630859,0.244187,0.0803909,-1.75287
9919913604,-2,-1,0,1,-1,-2,1,1,9919912813,-0.0507812,0.233398,0.955566,9919912813,2.375,0.375,-0.625,9919912813,-0.108521,0.0679932,0.765259,-0.630859,0.244187,0.0803909,-1.75287
9919913604,0,-4,-1,-2,-3,-3,-1,-3,9919912813,-0.0507812,0.233398,0.955566,9919912813,2.375,0.375,-0.625,9919912813,-0.108521,0.0679932,0.765259,-0.630859,0.244187,0.0803909,-1.75287
9919927812,-1,0,-1,-2,-3,-1,-1,-1,9919912813,-0.0507812,0.233398,0.955566,9919912813,2.375,0.375,-0.625,9919912813,-0.108521,0.0679932,0.765259,-0.630859,0.244187,0.0803909,-1.75287
9919927812,0,0,-2,-3,-5,0,1,-2,9919928597,-0.019043,0.254395,0.958984,9919928597,-0.8125,4.0625,-2.0625,9919928597,-0.108521,0.0680542,0.765381,-0.630737,0.244273,0.0803569,-1.75326
9919934663,-1,0,-2,-3,-10,-2,0,2,9919928597,-0.019043,0.254395,0.958984,9919928597,-0.8125,4.0625,-2.0625,9919928597,-0.108521,0.0680542,0.765381,-0.630737,0.244273,0.0803569,-1.75326
9919934663,0,1,0,-2,5,1,-1,0,9919928597,-0.019043,0.254395,0.958984,9919928597,-0.8125,4.0625,-2.0625,9919928597,-0.108521,0.0680542,0.765381,-0.630737,0.244273,0.0803569,-1.75326
9919951020,-3,-2,-3,-4,2,-1,0,-1,9919928597,-0.019043,0.254395,0.958984,9919928597,-0.8125,4.0625,-2.0625,9919928597,-0.108521,0.0680542,0.765381,-0.630737,0.244273,0.0803569,-1.75326
9919951020,-3,-1,-1,1,-2,-1,-1,-3,9919951771,-0.0327148,0.351562,0.932617,9919951771,-5.1875,4.3125,-3.75,9919951771,-0.10907,0.0682373,0.765564,-0.630371,0.245237,0.0810589,-1.7539
9919952597,1,-1,-1,0,1,4,-1,-1,9919951771,-0.0327148,0.351562,0.932617,9919951771,-5.1875,4.3125,-3.75,9919951771,-0.10907,0.0682373,0.765564,-0.630371,0.245237,0.0810589,-1.7539
9919952597,-3,-2,-4,3,-3,1,-2,0,9919951771,-0.0327148,0.351562,0.932617,9919951771,-5.1875,4.3125,-3.75,9919951771,-0.10907,0.0682373,0.765564,-0.630371,0.245237,0.0810589,-1.7539
9919964696,1,-3,-2,-3,2,-1,-5,-7,9919951771,-0.0327148,0.351562,0.932617,9919951771,-5.1875,4.3125,-3.75,9919951771,-0.10907,0.0682373,0.765564,-0.630371,0.245237,0.0810589,-1.7539
9919964696,-2,-1,1,0,-3,2,2,3,9919972787,-0.118652,0.242676,0.988281,9919972787,-3.1875,-0.375,1,9919972787,-0.108948,0.0675659,0.765503,-0.630554,0.24406,0.0816825,-1.75353
9919973602,1,0,-1,1,2,2,-5,-2,9919972787,-0.118652,0.242676,0.988281,9919972787,-3.1875,-0.375,1,9919972787,-0.108948,0.0675659,0.765503,-0.630554,0.24406,0.0816825,-1.75353
9919973602,0,0,0,-2,-1,0,3,2,9919972787,-0.118652,0.242676,0.988281,9919972787,-3.1875,-0.375,1,9919972787,-0.108948,0.0675659,0.765503,-0.630554,0.24406,0.0816825,-1.75353
9919987786,-2,-1,1,3,0,-1,-1,-1,9919972787,-0.118652,0.242676,0.988281,9919972787,-3.1875,-0.375,1,9919972787,-0.108948,0.0675659,0.765503,-0.630554,0.24406,0.0816825,-1.75353
9919987786,-2,4,-2,-3,-1,-1,-2,-2,9919988578,-0.12793,0.240234,0.988281,9919988578,-5.1875,-5.125,2.8125,9919988578,-0.108093,0.0670776,0.765381,-0.630859,0.242209,0.0809202,-1.75302
9919994603,1,-3,0,0,-3,-3,1,-2,9919988578,-0.12793,0.240234,0.988281,9919988578,-5.1875,-5.125,2.8125,9919988578,-0.108093,0.0670776,0.765381,-0.630859,0.242209,0.0809202,-1.75302
9919994603,1,-2,4,2,-1,0,-3,-4,9919988578,-0.12793,0.240234,0.988281,9919988578,-5.1875,-5.125,2.8125,9919988578,-0.108093,0.0670776,0.765381,-0.630859,0.242209,0.0809202,-1.75302
9920010950,-1,-1,-2,1,1,1,1,0,9919988578,-0.12793,0.240234,0.988281,9919988578,-5.1875,-5.125,2.8125,9919988578,-0.108093,0.0670776,0.765381,-0.630859,0.242209,0.0809202,-1.75302
9920010950,0,-3,1,1,-2,0,0,1,9920011735,-0.0771484,0.252441,0.984375,9920011735,-8.3125,-5.3125,1.9375,9920011735,-0.106506,0.0667725,0.76532,-0.631226,0.239689,0.0788074,-1.75271
9920012600,-1,-1,-1,-6,2,0,0,-1,9920011735,-0.0771484,0.252441,0.984375,9920011735,-8.3125,-5.3125,1.9375,9920011735,-0.106506,0.0667725,0.76532,-0.631226,0.239689,0.0788074,-1.75271
9920012600,-3,-1,-1,-2,-1,1,-1,-1,9920011735,-0.0771484,0.252441,0.984375,9920011735,-8.3125,-5.3125,1.9375,9920011735,-0.106506,0.0667725,0.76532,-0.631226,0.239689,0.0788074,-1.75271
9920024640,0,-3,0,0,-2,-1,1,-1,9920011735,-0.0771484,0.252441,0.984375,9920011735,-8.3125,-5.3125,1.9375,9920011735,-0.106506,0.0667725,0.76532,-0.631226,0.239689,0.0788074,-1.75271
9920024640,-1,-2,-1,2,0,0,-4,0,9920040326,-0.0717773,0.243652,0.997559,9920040326,-11.625,-2.9375,1.75,9920040326,-0.104797,0.0656738,0.76532,-0.631653,0.235795,0.0775185,-1.75239
9920041060,-3,-1,-1,1,6,1,1,-1,9920040326,-0.0717773,0.243652,0.997559,9920040326,-11.625,-2.9375,1.75,9920040326,-0.104797,0.0656738,0.76532,-0.631653,0.235795,0.0775185,-1.75239
9920041060,0,-2,-3,-4,-1,-4,-1,4,9920040326,-0.0717773,0.243652,0.997559,9920040326,-11.625,-2.9375,1.75,9920040326,-0.104797,0.0656738,0.76532,-0.631653,0.235795,0.0775185,-1.75239
9920047816,-2,1,0,1,-2,-2,0,-5,9920040326,-0.0717773,0.243652,0.997559,9920040326,-11.625,-2.9375,1.75,9920040326,-0.104797,0.0656738,0.76532,-0.631653,0.235795,0.0775185,-1.75239
9920047816,-1,0,-1,-1,-3,0,0,0,9920048590,-0.0610352,0.23584,1.00195,9920048590,-10.9375,-2.8125,-0.75,9920048590,-0.103027,0.0646362,0.765564,-0.631775,0.231885,0.0761505,-1.75285
9920054639,-1,-1,0,0,0,-2,-4,-2,9920048590,-0.0610352,0.23584,1.00195,9920048590,-10.9375,-2.8125,-0.75,9920048590,-0.103027,0.0646362,0.765564,-0.631775,0.231885,0.0761505,-1.75285
9920054639,-3,-2,0,-1,-1,-2,-3,-5,9920048590,-0.0610352,0.23584,1.00195,9920048590,-10.9375,-2.8125,-0.75,9920048590,-0.103027,0.0646362,0.765564,-0.631775,0.231885,0.0761505,-1.75285
9920070955,2,-1,-2,1,0,-2,-2,3,9920048590,-0.0610352,0.23584,1.00195,9920048590,-10.9375,-2.8125,-0.75,9920048590,-0.103027,0.0646362,0.765564,-0.631775,0.231885,0.0761505,-1.75285
9920070955,0,-3,-3,-2,-1,-2,4,-1,9920071734,-0.0654297,0.224609,0.984863,9920071734,-12.5625,-2.875,-5.8125,9920071734,-0.101196,0.0632324,0.766418,-0.631165,0.227259,0.0753686,-1.75515
9920072599,0,-2,1,-1,-2,-2,-2,-2,9920071734,-0.0654297,0.224609,0.984863,9920071734,-12.5625,-2.875,-5.8125,9920071734,-0.101196,0.0632324,0.766418,-0.631165,0.227259,0.0753686,-1.75515
9920072599,-4,2,1,2,0,-3,-1,4,9920071734,-0.0654297,0.224609,0.984863,9920071734,-12.5625,-2.875,-5.8125,9920071734,-0.101196,0.0632324,0.766418,-0.631165,0.227259,0.0753686,-1.75515
9920084629,0,-4,1,-2,1,0,1,-4,9920071734,-0.0654297,0.224609,0.984863,9920071734,-12.5625,-2.875,-5.8125,9920071734,-0.101196,0.0632324,0.766418,-0.631165,0.227259,0.0753686,-1.75515
9920084629,0,-2,-3,-3,0,-1,-2,3,9920092860,-0.100098,0.216797,1.00391,9920092860,-17.5,1.6875,-8.5625,9920092860,-0.0997314,0.0603027,0.767517,-0.630371,0.220742,0.0771415,-1.75787
9920093649,0,-3,0,1,-2,-1,1,2,9920092860,-0.100098,0.216797,1.00391,9920092860,-17.5,1.6875,-8.5625,9920092860,-0.0997314,0.0603027,0.767517,-0.630371,0.220742,0.0771415,-1.75787
9920093649,3,3,-4,-4,-1,-4,-4,-8,9920092860,-0.100098,0.216797,1.00391,9920092860,-17.5,1.6875,-8.5625,9920092860,-0.0997314,0.0603027,0.767517,-0.630371,0.220742,0.0771415,-1.75787
9920107845,0,-3,-2,1,-2,-1,0,3,9920092860,-0.100098,0.216797,1.00391,9920092860,-17.5,1.6875,-8.5625,9920092860,-0.0997314,0.0603027,0.767517,-0.630371,0.220742,0.0771415,-1.75787
9920107845,-2,-1,-1,0,-1,0,-2,-2,9920108616,-0.148926,0.202637,1.02197,9920108616,-26.5,2.5,-3.3125,9920108616,-0.0976562,0.0557861,0.768127,-0.63031,0.211039,0.0797844,-1.75877
9920114651,-1,-1,1,-2,1,3,-3,-1,9920108616,-0.148926,0.202637,1.02197,9920108616,-26.5,2.5,-3.3125,9920108616,-0.0976562,0.0557861,0.768127,-0.63031,0.211039,0.0797844,-1.75877
9920114651,0,0,-1,3,1,1,0,4,9920108616,-0.148926,0.202637,1.02197,9920108616,-26.5,2.5,-3.3125,9920108616,-0.0976562,0.0557861,0.768127,-0.63031,0.211039,0.0797844,-1.75877
9920131055,-1,-1,-3,-1,-3,-2,-4,-4,9920108616,-0.148926,0.202637,1.02197,9920108616,-26.5,2.5,-3.3125,9920108616,-0.0976562,0.0557861,0.768127,-0.63031,0.211039,0.0797844,-1.75877
9920131055,0,0,1,-4,-2,0,-1,-3,9920131824,-0.148926,0.15332,0.990234,9920131824,-12.9375,-0.875,3.1875,9920131824,-0.0963135,0.0531616,0.768005,-0.63092,0.205296,0.0809454,-1.75781
9920132575,-2,-3,-5,-2,-8,-1,0,-2,9920131824,-0.148926,0.15332,0.990234,9920131824,-12.9375,-0.875,3.1875,9920131824,-0.0963135,0.0531616,0.768005,-0.63092,0.205296,0.0809454,-1.75781
9920132575,0,-1,4,0,5,-1,-3,-5,9920131824,-0.148926,0.15332,0.990234,9920131824,-12.9375,-0.875,3.1875,9920131824,-0.0963135,0.0531616,0.768005,-0.63092,0.205296,0.0809454,-1.75781
9920144835,-1,1,-2,1,-2,3,-1,7,9920131824,-0.148926,0.15332,0.990234,9920131824,-12.9375,-0.875,3.1875,9920131824,-0.0963135,0.0531616,0.768005,-0.63092,0.205296,0.0809454,-1.75781
9920144835,0,-2,-1,1,0,-6,2,0,9920152991,-0.0820312,0.174805,1.00732,9920152991,-0.75,-0.1875,-0.125,9920152991,-0.0962524,0.0531006,0.768005,-0.63092,0.20512,0.0809286,-1.7578
9920153629,-3,2,1,-4,0,-3,0,0,9920152991,-0.0820312,0.174805,1.00732,9920152991,-0.75,-0.1875,-0.125,9920152991,-0.0962524,0.0531006,0.768005,-0.63092,0.20512,0.0809286,-1.7578
9920153629,-3,-1,-4,-4,-7,-2,-1,-3,9920152991,-0.0820312,0.174805,1.00732,9920152991,-0.75,-0.1875,-0.125,9920152991,-0.0962524,0.0531006,0.768005,-0.63092,0.20512,0.0809286,-1.7578
9920167637,0,-3,-3,0,-5,0,0,0,9920152991,-0.0820312,0.174805,1.00732,9920152991,-0.75,-0.1875,-0.125,9920152991,-0.0962524,0.0531006,0.768005,-0.63092,0.20512,0.0809286,-1.7578
9920167637,0,-2,-1,-2,-2,1,-1,1,9920175520,-0.0390625,0.213379,0.984863,9920175520,6.6875,-0.625,-3.8125,9920175520,-0.0966187,0.0543823,0.768372,-0.63031,0.207516,0.0800079,-1.75922
9920176224,1,0,-1,1,1,-1,-1,2,9920175520,-0.0390625,0.213379,0.984863,9920175520,6.6875,-0.625,-3.8125,9920175520,-0.0966187,0.0543823,0.768372,-0.63031,0.207516,0.0800079,-1.75922
9920176224,-2,-3,-5,2,3,0,-1,-4,9920175520,-0.0390625,0.213379,0.984863,9920175520,6.6875,-0.625,-3.8125,9920175520,-0.0966187,0.0543823,0.768372,-0.63031,0.207516,0.0800079,-1.75922
9920191028,3,-1,2,0,2,-4,-1,0,9920175520,-0.0390625,0.213379,0.984863,9920175520,6.6875,-0.625,-3.8125,9920175520,-0.0966187,0.0543823,0.768372,-0.63031,0.207516,0.0800079,-1.75922
9920191028,0,2,-3,-2,-4,-1,-2,0,9920191775,-0.0385742,0.221191,0.975098,9920191775,5.125,0,1.5625,9920191775,-0.0969238,0.055542,0.768127,-0.630493,0.209729,0.078944,-1.75869
9920192575,-1,-3,-2,-1,3,-1,-2,-3,9920191775,-0.0385742,0.221191,0.975098,9920191775,5.125,0,1.5625,9920191775,-0.0969238,0.055542,0.768127,-0.630493,0.209729,0.078944,-1.75869
9920192575,0,-1,0,-3,-3,2,1,0,9920191775,-0.0385742,0.221191,0.975098,9920191775,5.125,0,1.5625,9920191775,-0.0969238,0.055542,0.768127,-0.630493,0.209729,0.078944,-1.75869
9920204655,-2,0,-1,-2,-1,0,0,-4,9920191775,-0.0385742,0.221191,0.975098,9920191775,5.125,0,1.5625,9920191775,-0.0969238,0.055542,0.768127,-0.630493,0.209729,0.078944,-1.75869
9920204655,-4,-3,-2,1,-1,-3,-4,-5,9920212949,-0.0703125,0.217773,0.98291,9920212949,2.0625,0.25,2.8125,9920212949,-0.0971069,0.0559692,0.767761,-0.630859,0.210664,0.0785733,-1.75763
9920213653,-1,0,-4,0,-3,-1,-1,3,9920212949,-0.0703125,0.217773,0.98291,9920212949,2.0625,0.25,2.8125,9920212949,-0.0971069,0.0559692,0.767761,-0.630859,0.210664,0.0785733,-1.75763
9920213653,0,-1,0,-1,-6,0,2,1,9920212949,-0.0703125,0.217773,0.98291,9920212949,2.0625,0.25,2.8125,9920212949,-0.0971069,0.0559692,0.767761,-0.630859,0.210664,0.0785733,-1.75763
9920228035,-2,0,3,0,-3,0,-3,-5,9920212949,-0.0703125,0.217773,0.98291,9920212949,2.0625,0.25,2.8125,9920212949,-0.0971069,0.0559692,0.767761,-0.630859,0.210664,0.0785733,-1.75763
9920228035,-1,-1,2,1,7,0,0,1,9920228705,-0.0981445,0.196289,0.994629,9920228705,3.125,1,2.625,9920228705,-0.0975952,0.0560303,0.767456,-0.631165,0.211427,0.0791541,-1.7567
9920234817,-2,-2,-6,1,-3,-2,-2,-7,9920228705,-0.0981445,0.196289,0.994629,9920228705,3.125,1,2.625,9920228705,-0.0975952,0.0560303,0.767456,-0.631165,0.211427,0.0791541,-1.7567
9920234817,-2,-3,-2,-1,-9,0,0,2,9920228705,-0.0981445,0.196289,0.994629,9920228705,3.125,1,2.625,9920228705,-0.0975952,0.0560303,0.767456,-0.631165,0.211427,0.0791541,-1.7567
9920250975,2,1,0,-6,7,-3,1,1,9920228705,-0.0981445,0.196289,0.994629,9920228705,3.125,1,2.625,9920228705,-0.0975952,0.0560303,0.767456,-0.631165,0.211427,0.0791541,-1.7567
9920250975,-3,-1,1,-1,-4,-3,-1,0,9920251772,-0.0849609,0.20166,0.994629,9920251772,6.8125,0.4375,-0.625,9920251772,-0.0983887,0.0567627,0.767456,-0.630981,0.213577,0.0794692,-1.75687
9920252595,1,0,-3,-1,-2,-1,-1,0,9920251772,-0.0849609,0.20166,0.994629,9920251772,6.8125,0.4375,-0.625,9920251772,-0.0983887,0.0567627,0.767456,-0.630981,0.213577,0.0794692,-1.75687
9920252595,2,1,0,1,1,0,0,1,9920251772,-0.0849609,0.20166,0.994629,9920251772,6.8125,0.4375,-0.625,9920251772,-0.0983887,0.0567627,0.767456,-0.630981,0.213577,0.0794692,-1.75687
9920264643,-2,0,0,-4,-10,0,-2,-2,9920251772,-0.0849609,0.20166,0.994629,9920251772,6.8125,0.4375,-0.625,9920251772,-0.0983887,0.0567627,0.767456,-0.630981,0.213577,0.0794692,-1.75687
9920264643,-3,-2,-4,-4,-1,-2,0,-4,9920272854,-0.0429688,0.223145,0.975098,9920272854,7.625,1.25,-1.875,9920272854,-0.0991211,0.0579834,0.767517,-0.630615,0.216377,0.0791063,-1.75736
9920273586,-2,0,0,-3,1,0,1,-1,9920272854,-0.0429688,0.223145,0.975098,9920272854,7.625,1.25,-1.875,9920272854,-0.0991211,0.0579834,0.767517,-0.630615,0.216377,0.0791063,-1.75736
9920273586,1,-2,0,-2,1,-1,0,2,9920272854,-0.0429688,0.223145,0.975098,9920272854,7.625,1.25,-1.875,9920272854,-0.0991211,0.0579834,0.767517,-0.630615,0.216377,0.0791063,-1.75736
9920287825,-3,1,-1,0,4,2,-2,-3,9920272854,-0.0429688,0.223145,0.975098,9920272854,7.625,1.25,-1.875,9920272854,-0.0991211,0.0579834,0.767517,-0.630615,0.216377,0.0791063,-1.75736
9920287825,3,-3,2,-1,-2,-1,-3,0,9920288595,-0.0424805,0.242188,0.973633,9920288595,2.375,3.25,-0.0625,9920288595,-0.0996704,0.0584717,0.767395,-0.630676,0.21786,0.0793028,-1.75708
9920294644,-2,-1,-1,-1,-2,0,-2,-3,9920288595,-0.0424805,0.242188,0.973633,9920288595,2.375,3.25,-0.0625,9920288595,-0.0996704,0.0584717,0.767395,-0.630676,0.21786,0.0793028,-1.75708
9920294644,-1,-2,1,0,-1,-4,-2,-6,9920288595,-0.0424805,0.242188,0.973633,9920288595,2.375,3.25,-0.0625,9920288595,-0.0996704,0.0584717,0.767395,-0.630676,0.21786,0.0793028,-1.75708
9920318417,-2,-2,-3,-1,3,0,-2,2,9920288595,-0.0424805,0.242188,0.973633,9920288595,2.375,3.25,-0.0625,9920288595,-0.0996704,0.0584717,0.767395,-0.630676,0.21786,0.0793028,-1.75708
9920318417,1,0,0,3,-3,-1,-2,-2,9920319215,-0.0947266,0.216797,0.977051,9920319215,-2.125,2.5625,2.5625,9920319215,-0.0999146,0.0578613,0.76709,-0.631042,0.217271,0.0803474,-1.756
9920320028,-1,1,0,0,-1,0,2,-5,9920319215,-0.0947266,0.216797,0.977051,9920319215,-2.125,2.5625,2.5625,9920319215,-0.0999146,0.0578613,0.76709,-0.631042,0.217271,0.0803474,-1.756
9920320028,-3,-2,-4,0,0,1,-4,1,9920319215,-0.0947266,0.216797,0.977051,9920319215,-2.125,2.5625,2.5625,9920319215,-0.0999146,0.0578613,0.76709,-0.631042,0.217271,0.0803474,-1.756
9920324830,0,0,0,1,0,-1,0,1,9920319215,-0.0947266,0.216797,0.977051,9920319215,-2.125,2.5625,2.5625,9920319215,-0.0999146,0.0578613,0.76709,-0.631042,0.217271,0.0803474,-1.756
9920324830,1,1,-1,-4,-1,3,2,0,9920332952,-0.102051,0.204102,0.986328,9920332952,-1.0625,1.375,2,9920332952,-0.100037,0.057312,0.766907,-0.631348,0.216619,0.081159,-1.7553
9920333643,0,-2,2,2,-2,-4,-3,0,9920332952,-0.102051,0.204102,0.986328,9920332952,-1.0625,1.375,2,9920332952,-0.100037,0.057312,0.766907,-0.631348,0.216619,0.081159,-1.7553
9920333643,-2,-1,0,0,1,1,0,-1,9920332952,-0.102051,0.204102,0.986328,9920332952,-1.0625,1.375,2,9920332952,-0.100037,0.057312,0.766907,-0.631348,0.216619,0.081159,-1.7553
9920347826,0,0,1,-1,-2,4,-4,-1,9920332952,-0.102051,0.204102,0.986328,9920332952,-1.0625,1.375,2,9920332952,-0.100037,0.057312,0.766907,-0.631348,0.216619,0.081159,-1.7553
9920347826,-3,-3,-3,0,-11,-1,1,-2,9920348710,-0.112793,0.20166,0.986816,9920348710,2.1875,0.25,1.3125,9920348710,-0.100464,0.057251,0.766724,-0.63147,0.217093,0.0818429,-1.75473
9920354823,1,0,0,-3,10,0,-1,3,9920348710,-0.112793,0.20166,0.986816,9920348710,2.1875,0.25,1.3125,9920348710,-0.100464,0.057251,0.766724,-0.63147,0.217093,0.0818429,-1.75473
9920354823,-1,1,-3,-2,2,1,1,3,9920348710,-0.112793,0.20166,0.986816,9920348710,2.1875,0.25,1.3125,9920348710,-0.100464,0.057251,0.766724,-0.63147,0.217093,0.0818429,-1.75473
9920371200,-1,-1,-4,-5,-6,-2,-1,1,9920348710,-0.112793,0.20166,0.986816,9920348710,2.1875,0.25,1.3125,9920348710,-0.100464,0.057251,0.766724,-0.63147,0.217093,0.0818429,-1.75473
9920371200,-2,1,2,-1,1,3,-1,-1,9920371837,-0.0805664,0.231934,0.976074,9920371837,3.3125,-1.875,1.1875,9920371837,-0.100708,0.0580444,0.766602,-0.631531,0.218647,0.0811813,-1.75452
9920372677,-2,-2,-3,-2,-8,-2,-3,-6,9920371837,-0.0805664,0.231934,0.976074,9920371837,3.3125,-1.875,1.1875,9920371837,-0.100708,0.0580444,0.766602,-0.631531,0.218647,0.0811813,-1.75452
9920372677,-1,-3,-2,-1,-1,-3,-1,2,9920371837,-0.0805664,0.231934,0.976074,9920371837,3.3125,-1.875,1.1875,9920371837,-0.100708,0.0580444,0.766602,-0.631531,0.218647,0.0811813,-1.75452
9920384825,-2,-3,-1,1,4,-2,1,0,9920371837,-0.0805664,0.231934,0.976074,9920371837,3.3125,-1.875,1.1875,9920371837,-0.100708,0.0580444,0.766602,-0.631531,0.218647,0.0811813,-1.75452
9920384825,-3,-1,0,1,-5,-1,-3,-3,9920393046,-0.0708008,0.226074,0.969727,9920393046,0.625,-2.8125,3.1875,9920393046,-0.100342,0.0586548,0.766235,-0.631897,0.219139,0.0797277,-1.75352
9920393633,-1,-3,-5,1,2,0,1,1,9920393046,-0.0708008,0.226074,0.969727,9920393046,0.625,-2.8125,3.1875,9920393046,-0.100342,0.0586548,0.766235,-0.631897,0.219139,0.0797277,-1.75352
9920393633,-1,3,0,2,-5,2,-2,0,9920393046,-0.0708008,0.226074,0.969727,9920393046,0.625,-2.8125,3.1875,9920393046,-0.100342,0.0586548,0.766235,-0.631897,0.219139,0.0797277,-1.75352
9920408037,-1,-1,0,2,0,-1,-2,1,9920393046,-0.0708008,0.226074,0.969727,9920393046,0.625,-2.8125,3.1875,9920393046,-0.100342,0.0586548,0.766235,-0.631897,0.219139,0.0797277,-1.75352
9920408037,-2,-4,-4,-4,-1,-1,0,-4,9920408656,-0.0727539,0.228027,0.976562,9920408656,-5.3125,-1.9375,7.3125,9920408656,-0.0994873,0.0584717,0.765503,-0.632996,0.217853,0.0783712,-1.75115
9920414702,-1,0,1,-2,2,-2,-2,-1,9920408656,-0.0727539,0.228027,0.976562,9920408656,-5.3125,-1.9375,7.3125,9920408656,-0.0994873,0.0584717,0.765503,-0.632996,0.217853,0.0783712,-1.75115
9920414702,0,-1,1,-3,1,-2,0,-2,9920408656,-0.0727539,0.228027,0.976562,9920408656,-5.3125,-1.9375,7.3125,9920408656,-0.0994873,0.0584717,0.765503,-0.632996,0.217853,0.0783712,-1.75115
9920430988,-1,0,-3,-1,-4,0,-1,-1,9920408656,-0.0727539,0.228027,0.976562,9920408656,-5.3125,-1.9375,7.3125,9920408656,-0.0994873,0.0584717,0.765503,-0.632996,0.217853,0.0783712,-1.75115
9920430988,-1,-1,-2,-2,-1,1,0,-1,9920431798,-0.0786133,0.210938,0.98584,9920431798,-8.4375,-2.25,7.125,9920431798,-0.0981445,0.0576782,0.764832,-0.634033,0.214967,0.0770645,-1.74887
9920432636,0,1,-1,2,-2,-1,-2,0,9920431798,-0.0786133,0.210938,0.98584,9920431798,-8.4375,-2.25,7.125,9920431798,-0.0981445,0.0576782,0.764832,-0.634033,0.214967,0.0770645,-1.74887
9920432636,1,-1,2,-2,-2,0,-4,0,9920431798,-0.0786133,0.210938,0.98584,9920431798,-8.4375,-2.25,7.125,9920431798,-0.0981445,0.0576782,0.764832,-0.634033,0.214967,0.0770645,-1.74887
9920453607,-2,1,-1,-1,0,-3,-2,1,9920431798,-0.0786133,0.210938,0.98584,9920431798,-8.4375,-2.25,7.125,9920431798,-0.0981445,0.0576782,0.764832,-0.634033,0.214967,0.0770645,-1.74887
9920453607,-1,-1,0,3,5,-2,3,0,9920454328,-0.074707,0.202148,1.00049,9920454328,-4.6875,-1.4375,0.1875,9920454328,-0.09729,0.0571289,0.764893,-0.634155,0.213014,0.0764501,-1.74891
9920455084,-2,-1,-2,-3,-6,1,-1,-4,9920454328,-0.074707,0.202148,1.00049,9920454328,-4.6875,-1.4375,0.1875,9920454328,-0.09729,0.0571289,0.764893,-0.634155,0.213014,0.0764501,-1.74891
9920455084,-3,-3,-2,-5,0,-2,-2,-5,9920454328,-0.074707,0.202148,1.00049,9920454328,-4.6875,-1.4375,0.1875,9920454328,-0.09729,0.0571289,0.764893,-0.634155,0.213014,0.0764501,-1.74891
9920468019,1,-2,-4,0,0,-2,-2,-2,9920454328,-0.074707,0.202148,1.00049,9920454328,-4.6875,-1.4375,0.1875,9920454328,-0.09729,0.0571289,0.764893,-0.634155,0.213014,0.0764501,-1.74891
9920468019,-1,0,1,0,-1,-1,-2,2,9920468728,-0.0629883,0.219238,0.991211,9920468728,-3.4375,0.1875,-0.6875,9920468728,-0.0968628,0.0567627,0.765015,-0.634155,0.211894,0.0762842,-1.74919
9920474825,1,0,1,1,3,-2,1,1,9920468728,-0.0629883,0.219238,0.991211,9920468728,-3.4375,0.1875,-0.6875,9920468728,-0.0968628,0.0567627,0.765015,-0.634155,0.211894,0.0762842,-1.74919
9920474825,-1,3,-3,2,-3,-1,-1,-4,9920468728,-0.0629883,0.219238,0.991211,9920468728,-3.4375,0.1875,-0.6875,9920468728,-0.0968628,0.0567627,0.765015,-0.634155,0.211894,0.0762842,-1.74919
9920491169,-2,1,-3,1,-2,-1,0,0,9920468728,-0.0629883,0.219238,0.991211,9920468728,-3.4375,0.1875,-0.6875,9920468728,-0.0968628,0.0567627,0.765015,-0.634155,0.211894,0.0762842,-1.74919
9920491169,0,2,-4,-7,-5,-1,-2,-2,9920491866,-0.0712891,0.223633,0.975586,9920491866,-2.5,-0.1875,4.25,9920491866,-0.0965576,0.0567017,0.764526,-0.634766,0.211457,0.0757295,-1.74766
9920492646,0,1,0,-1,2,2,0,-1,9920491866,-0.0712891,0.223633,0.975586,9920491866,-2.5,-0.1875,4.25,9920491866,-0.0965576,0.0567017,0.764526,-0.634766,0.211457,0.0757295,-1.74766
9920492646,-2,-3,-2,-2,2,-2,-3,-4,9920491866,-0.0712891,0.223633,0.975586,9920491866,-2.5,-0.1875,4.25,9920491866,-0.0965576,0.0567017,0.764526,-0.634766,0.211457,0.0757295,-1.74766
9920504679,1,3,4,-3,-1,-1,2,-2,9920491866,-0.0712891,0.223633,0.975586,9920491866,-2.5,-0.1875,4.25,9920491866,-0.0965576,0.0567017,0.764526,-0.634766,0.211457,0.0757295,-1.74766
9920504679,1,-3,-3,4,3,-3,0,0,9920512902,-0.0961914,0.191895,0.990234,9920512902,-1.0625,-0.3125,5.5625,9920512902,-0.0964355,0.0563965,0.763977,-0.635498,0.210901,0.0757418,-1.74587
9920513594,1,0,0,1,2,0,-1,2,9920512902,-0.0961914,0.191895,0.990234,9920512902,-1.0625,-0.3125,5.5625,9920512902,-0.0964355,0.0563965,0.763977,-0.635498,0.210901,0.0757418,-1.74587
9920513594,-1,-2,-3,-3,-6,0,1,-2,9920512902,-0.0961914,0.191895,0.990234,9920512902,-1.0625,-0.3125,5.5625,9920512902,-0.0964355,0.0563965,0.763977,-0.635498,0.210901,0.0757418,-1.74587
9920528028,-3,-4,0,2,0,-2,-1,-4,9920512902,-0.0961914,0.191895,0.990234,9920512902,-1.0625,-0.3125,5.5625,9920512902,-0.0964355,0.0563965,0.763977,-0.635498,0.210901,0.0757418,-1.74587
9920528028,1,1,-1,-1,2,-3,-2,0,9920528719,-0.10498,0.175781,0.994629,9920528719,4.5,-2,-1.75,9920528719,-0.0966187,0.0565796,0.764221,-0.635193,0.211396,0.0758709,-1.74667
9920534765,-1,-3,-2,-6,-3,2,-1,-1,9920528719,-0.10498,0.175781,0.994629,9920528719,4.5,-2,-1.75,9920528719,-0.0966187,0.0565796,0.764221,-0.635193,0.211396,0.0758709,-1.74667
9920534765,-1,1,-2,4,2,-3,-1,1,9920528719,-0.10498,0.175781,0.994629,9920528719,4.5,-2,-1.75,9920528719,-0.0966187,0.0565796,0.764221,-0.635193,0.211396,0.0758709,-1.74667
9920558468,-3,-2,-2,-4,-5,-3,-2,-4,9920528719,-0.10498,0.175781,0.994629,9920528719,4.5,-2,-1.75,9920528719,-0.0966187,0.0565796,0.764221,-0.635193,0.211396,0.0758709,-1.74667
9920558468,-2,-1,1,-1,3,2,-2,-3,9920559268,-0.0913086,0.199219,0.994141,9920559268,8.75,-1.125,-9.75,9920559268,-0.0975342,0.0574951,0.765259,-0.633728,0.213864,0.0764798,-1.75012
9920560071,0,2,5,-3,-1,-2,-1,1,9920559268,-0.0913086,0.199219,0.994141,9920559268,8.75,-1.125,-9.75,9920559268,-0.0975342,0.0574951,0.765259,-0.633728,0.213864,0.0764798,-1.75012
9920560071,-2,-2,-5,-5,-4,-1,1,0,9920559268,-0.0913086,0.199219,0.994141,9920559268,8.75,-1.125,-9.75,9920559268,-0.0975342,0.0574951,0.765259,-0.633728,0.213864,0.0764798,-1.75012
9920564603,1,-2,-3,-1,1,-2,0,3,9920559268,-0.0913086,0.199219,0.994141,9920559268,8.75,-1.125,-9.75,9920559268,-0.0975342,0.0574951,0.765259,-0.633728,0.213864,0.0764798,-1.75012
9920564603,-2,1,-5,0,0,-1,-2,-3,9920572773,-0.0581055,0.236816,0.982422,9920572773,5.6875,-1.125,-11.5625,9920572773,-0.0981445,0.0585327,0.766418,-0.63208,0.216097,0.0765195,-1.754
9920573595,-5,-2,0,1,-4,-1,-1,-3,9920572773,-0.0581055,0.236816,0.982422,9920572773,5.6875,-1.125,-11.5625,9920572773,-0.0981445,0.0585327,0.766418,-0.63208,0.216097,0.0765195,-1.754
9920573595,1,0,-1,3,-2,2,0,1,9920572773,-0.0581055,0.236816,0.982422,9920572773,5.6875,-1.125,-11.5625,9920572773,-0.0981445,0.0585327,0.766418,-0.63208,0.216097,0.0765195,-1.754
9920587824,-2,2,-1,-1,-1,-1,1,0,9920572773,-0.0581055,0.236816,0.982422,9920572773,5.6875,-1.125,-11.5625,9920572773,-0.0981445,0.0585327,0.766418,-0.63208,0.216097,0.0765195,-1.754
9920587824,-1,-1,0,-1,1,-3,-3,-1,9920588612,-0.0405273,0.263184,0.971191,9920588612,-3.375,-4.5625,-0.3125,9920588612,-0.097229,0.0593262,0.766479,-0.63208,0.216125,0.0741181,-1.75435
9920594655,-3,-2,-1,-2,1,-5,-3,-3,9920588612,-0.0405273,0.263184,0.971191,9920588612,-3.375,-4.5625,-0.3125,9920588612,-0.097229,0.0593262,0.766479,-0.63208,0.216125,0.0741181,-1.75435
9920594655,0,-1,-2,-2,1,2,-1,2,9920588612,-0.0405273,0.263184,0.971191,9920588612,-3.375,-4.5625,-0.3125,9920588612,-0.097229,0.0593262,0.766479,-0.63208,0.216125,0.0741181,-1.75435
9920610375,-2,-1,1,-1,2,1,1,0,9920588612,-0.0405273,0.263184,0.971191,9920588612,-3.375,-4.5625,-0.3125,9920588612,-0.097229,0.0593262,0.766479,-0.63208,0.216125,0.0741181,-1.75435
9920610375,2,-5,-2,1,0,1,-3,-1,9920611124,-0.110352,0.209473,0.98877,9920611124,-6.9375,-4,10.1875,9920611124,-0.0961304,0.0586548,0.765564,-0.633423,0.213779,0.072946,-1.75131
9920617151,0,1,4,1,-7,0,0,2,9920611124,-0.110352,0.209473,0.98877,9920611124,-6.9375,-4,10.1875,9920611124,-0.0961304,0.0586548,0.765564,-0.633423,0.213779,0.072946,-1.75131
9920617151,-1,-1,-1,-1,2,-2,-1,1,9920611124,-0.110352,0.209473,0.98877,9920611124,-6.9375,-4,10.1875,9920611124,-0.0961304,0.0586548,0.765564,-0.633423,0.213779,0.072946,-1.75131
9920633462,0,-4,-1,3,0,-1,1,-1,9920611124,-0.110352,0.209473,0.98877,9920611124,-6.9375,-4,10.1875,9920611124,-0.0961304,0.0586548,0.765564,-0.633423,0.213779,0.072946,-1.75131
9920633462,-1,1,-2,-2,-1,-1,-1,0,9920634284,-0.141113,0.134766,1.01318,9920634284,3.0625,-1.3125,5.5,9920634284,-0.0961914,0.0580444,0.765076,-0.634094,0.212985,0.0736427,-1.74964
9920635060,-1,-3,-6,0,2,0,-2,-3,9920634284,-0.141113,0.134766,1.01318,9920634284,3.0625,-1.3125,5.5,9920634284,-0.0961914,0.0580444,0.765076,-0.634094,0.212985,0.0736427,-1.74964
9920635060,-1,0,1,3,1,2,1,0,9920634284,-0.141113,0.134766,1.01318,9920634284,3.0625,-1.3125,5.5,9920634284,-0.0961914,0.0580444,0.765076,-0.634094,0.212985,0.0736427,-1.74964
9920647863,-2,0,-1,-1,1,-2,-1,-1,9920634284,-0.141113,0.134766,1.01318,9920634284,3.0625,-1.3125,5.5,9920634284,-0.0961914,0.0580444,0.765076,-0.634094,0.212985,0.0736427,-1.74964
9920647863,0,-2,1,1,-4,-1,1,1,9920648615,-0.14209,0.175781,1.03027,9920648615,20.625,-3.375,-0.875,9920648615,-0.0982056,0.0601196,0.765076,-0.633545,0.218765,0.0741604,-1.75016
9920654846,0,-2,-2,4,-2,1,0,1,9920648615,-0.14209,0.175781,1.03027,9920648615,20.625,-3.375,-0.875,9920648615,-0.0982056,0.0601196,0.765076,-0.633545,0.218765,0.0741604,-1.75016
9920654846,-1,-3,-4,-1,1,-2,-2,-3,9920648615,-0.14209,0.175781,1.03027,9920648615,20.625,-3.375,-0.875,9920648615,-0.0982056,0.0601196,0.765076,-0.633545,0.218765,0.0741604,-1.75016
9920670397,0,-1,-3,2,-3,1,-2,-2,9920648615,-0.14209,0.175781,1.03027,9920648615,20.625,-3.375,-0.875,9920648615,-0.0982056,0.0601196,0.765076,-0.633545,0.218765,0.0741604,-1.75016
9920670397,-2,0,2,-1,0,1,0,0,9920671221,-0.0170898,0.224121,0.990234,9920671221,26.9375,-4.375,-6.3125,9920671221,-0.100159,0.0645142,0.765564,-0.632263,0.227985,0.0718377,-1.75276
9920677303,0,-4,4,1,-6,-3,-1,-1,9920671221,-0.0170898,0.224121,0.990234,9920671221,26.9375,-4.375,-6.3125,9920671221,-0.100159,0.0645142,0.765564,-0.632263,0.227985,0.0718377,-1.75276
9920677303,0,4,1,3,2,-4,-2,-5,9920671221,-0.0170898,0.224121,0.990234,9920671221,26.9375,-4.375,-6.3125,9920671221,-0.100159,0.0645142,0.765564,-0.632263,0.227985,0.0718377,-1.75276
9920693692,-2,-6,-2,-2,3,-3,0,-2,9920671221,-0.0170898,0.224121,0.990234,9920671221,26.9375,-4.375,-6.3125,9920671221,-0.100159,0.0645142,0.765564,-0.632263,0.227985,0.0718377,-1.75276
9920693692,1,-2,-1,-5,-4,0,-1,-4,9920694323,0.00292969,0.256836,0.978516,9920694323,21.9375,-1.75,-5.5625,9920694323,-0.101868,0.0682983,0.765869,-0.631165,0.23596,0.0698765,-1.75473
9920695082,0,-2,-2,-3,-1,-1,0,1,9920694323,0.00292969,0.256836,0.978516,9920694323,21.9375,-1.75,-5.5625,9920694323,-0.101868,0.0682983,0.765869,-0.631165,0.23596,0.0698765,-1.75473
9920695082,-2,-2,1,-3,-2,1,-1,3,9920694323,0.00292969,0.256836,0.978516,9920694323,21.9375,-1.75,-5.5625,9920694323,-0.101868,0.0682983,0.765869,-0.631165,0.23596,0.0698765,-1.75473
9920707923,0,-2,2,-3,-4,-1,-5,-14,9920694323,0.00292969,0.256836,0.978516,9920694323,21.9375,-1.75,-5.5625,9920694323,-0.101868,0.0682983,0.765869,-0.631165,0.23596,0.0698765,-1.75473
9920707923,-2,-2,-5,2,6,-2,-1,4,9920708684,-0.117676,0.238281,1.01709,9920708684,26.125,-2.625,-0.6875,9920708684,-0.104675,0.0715942,0.765686,-0.630554,0.244673,0.070066,-1.7551
9920714698,-1,0,-2,-2,-5,-4,-2,-2,9920708684,-0.117676,0.238281,1.01709,9920708684,26.125,-2.625,-0.6875,9920708684,-0.104675,0.0715942,0.765686,-0.630554,0.244673,0.070066,-1.7551
9920714698,-1,-1,-3,-4,0,1,1,-5,9920708684,-0.117676,0.238281,1.01709,9920708684,26.125,-2.625,-0.6875,9920708684,-0.104675,0.0715942,0.765686,-0.630554,0.244673,0.070066,-1.7551
9920730377,-2,-1,2,1,2,3,-2,5,9920708684,-0.117676,0.238281,1.01709,9920708684,26.125,-2.625,-0.6875,9920708684,-0.104675,0.0715942,0.765686,-0.630554,0.244673,0.070066,-1.7551
9920730377,-1,-1,0,1,-1,0,0,-1,9920731162,-0.0400391,0.167969,0.941895,9920731162,41.875,-10.875,3.5,9920731162,-0.106995,0.0778809,0.765076,-0.630188,0.257404,0.0656059,-1.75505
9920737183,1,1,-6,-4,0,-3,-1,-3,9920731162,-0.0400391,0.167969,0.941895,9920731162,41.875,-10.875,3.5,9920731162,-0.106995,0.0778809,0.765076,-0.630188,0.257404,0.0656059,-1.75505
9920737183,-2,-1,1,-4,-6,-2,-2,-1,9920731162,-0.0400391,0.167969,0.941895,9920731162,41.875,-10.875,3.5,9920731162,-0.106995,0.0778809,0.765076,-0.630188,0.257404,0.0656059,-1.75505
9920753513,1,0,-2,2,-1,-4,2,1,9920731162,-0.0400391,0.167969,0.941895,9920731162,41.875,-10.875,3.5,9920731162,-0.106995,0.0778809,0.765076,-0.630188,0.257404,0.0656059,-1.75505
9920753513,3,-1,1,-3,0,2,-1,1,9920754333,0.00292969,0.324219,0.979004,9920754333,15.9375,-12.1875,-11.0625,9920754333,-0.107117,0.0822144,0.766174,-0.628296,0.264127,0.0608678,-1.75983
9920755140,0,-3,-3,3,2,-3,3,3,9920754333,0.00292969,0.324219,0.979004,9920754333,15.9375,-12.1875,-11.0625,9920754333,-0.107117,0.0822144,0.766174,-0.628296,0.264127,0.0608678,-1.75983
9920755140,-1,-3,-2,2,1,0,0,1,9920754333,0.00292969,0.324219,0.979004,9920754333,15.9375,-12.1875,-11.0625,9920754333,-0.107117,0.0822144,0.766174,-0.628296,0.264127,0.0608678,-1.75983
9920767996,-3,1,2,-1,-1,1,-5,-6,9920754333,0.00292969,0.324219,0.979004,9920754333,15.9375,-12.1875,-11.0625,9920754333,-0.107117,0.0822144,0.766174,-0.628296,0.264127,0.0608678,-1.75983
9920767996,-3,-1,-2,0,-6,-1,-1,-2,9920768707,0.0605469,0.351562,0.916992,9920768707,11.375,-9.75,-6.625,9920768707,-0.106812,0.0864868,0.766663,-0.627136,0.27027,0.055327,-1.76278
9920774851,-2,-1,-2,1,1,-1,-3,-4,9920768707,0.0605469,0.351562,0.916992,9920768707,11.375,-9.75,-6.625,9920768707,-0.106812,0.0864868,0.766663,-0.627136,0.27027,0.055327,-1.76278
9920774851,0,-3,1,-4,-5,2,-1,1,9920768707,0.0605469,0.351562,0.916992,9920768707,11.375,-9.75,-6.625,9920768707,-0.106812,0.0864868,0.766663,-0.627136,0.27027,0.055327,-1.76278
9920790504,-1,5,0,-2,0,-3,1,1,9920768707,0.0605469,0.351562,0.916992,9920768707,11.375,-9.75,-6.625,9920768707,-0.106812,0.0864868,0.766663,-0.627136,0.27027,0.055327,-1.76278
9920790504,-1,2,-4,-3,1,-1,-3,-6,9920791187,0.0424805,0.303223,0.936035,9920791187,-6.875,-0.375,2.875,9920791187,-0.105469,0.086792,0.766296,-0.627747,0.269035,0.0526983,-1.76172
9920797202,-2,-1,1,-4,-9,0,-1,4,9920791187,0.0424805,0.303223,0.936035,9920791187,-6.875,-0.375,2.875,9920791187,-0.105469,0.086792,0.766296,-0.627747,0.269035,0.0526983,-1.76172
9920797202,0,-4,-4,2,8,-4,-3,-4,9920791187,0.0424805,0.303223,0.936035,9920791187,-6.875,-0.375,2.875,9920791187,-0.105469,0.086792,0.766296,-0.627747,0.269035,0.0526983,-1.76172
9920813520,-1,-2,-2,-1,-2,0,1,1,9920791187,0.0424805,0.303223,0.936035,9920791187,-6.875,-0.375,2.875,9920791187,-0.105469,0.086792,0.766296,-0.627747,0.269035,0.0526983,-1.76172
9920813520,0,1,5,0,-2,0,-3,-1,9920814300,-0.059082,0.312988,0.983887,9920814300,-19.0625,3.5,2.75,9920814300,-0.104187,0.0842896,0.766174,-0.628479,0.263536,0.0537283,-1.76047
9920815093,-1,-1,-4,-2,-4,0,-1,1,9920814300,-0.059082,0.312988,0.983887,9920814300,-19.0625,3.5,2.75,9920814300,-0.104187,0.0842896,0.766174,-0.628479,0.263536,0.0537283,-1.76047
9920815093,-1,1,0,2,-4,-4,-2,-8,9920814300,-0.059082,0.312988,0.983887,9920814300,-19.0625,3.5,2.75,9920814300,-0.104187,0.0842896,0.766174,-0.628479,0.263536,0.0537283,-1.76047
9920827979,-3,-1,-6,0,-3,-2,-2,3,9920814300,-0.059082,0.312988,0.983887,9920814300,-19.0625,3.5,2.75,9920814300,-0.104187,0.0842896,0.766174,-0.628479,0.263536,0.0537283,-1.76047
9920827979,-1,-1,-3,0,0,-2,-1,1,9920828653,-0.0795898,0.220215,0.991699,9920828653,-6.3125,3.875,-8.125,9920828653,-0.104004,0.0823364,0.767151,-0.627563,0.260201,0.0562604,-1.76289
9920834736,1,1,2,-3,4,2,1,0,9920828653,-0.0795898,0.220215,0.991699,9920828653,-6.3125,3.875,-8.125,9920828653,-0.104004,0.0823364,0.767151,-0.627563,0.260201,0.0562604,-1.76289
9920834736,-3,0,-1,-2,-2,-1,-2,-3,9920828653,-0.0795898,0.220215,0.991699,9920828653,-6.3125,3.875,-8.125,9920828653,-0.104004,0.0823364,0.767151,-0.627563,0.260201,0.0562604,-1.76289
9920850387,-1,-2,-4,2,-2,2,1,2,9920828653,-0.0795898,0.220215,0.991699,9920828653,-6.3125,3.875,-8.125,9920828653,-0.104004,0.0823364,0.767151,-0.627563,0.260201,0.0562604,-1.76289
9920850387,-1,-1,0,1,-1,-5,3,1,9920851163,-0.0551758,0.276855,0.973633,9920851163,-11.75,-0.5,-10.9375,9920851163,-0.102966,0.0808716,0.768494,-0.626343,0.256498,0.0569821,-1.7666
9920857157,-3,1,-1,-4,3,-3,-1,-1,9920851163,-0.0551758,0.276855,0.973633,9920851163,-11.75,-0.5,-10.9375,9920851163,-0.102966,0.0808716,0.768494,-0.626343,0.256498,0.0569821,-1.7666
9920857157,-2,0,2,-2,2,1,-2,0,9920851163,-0.0551758,0.276855,0.973633,9920851163,-11.75,-0.5,-10.9375,9920851163,-0.102966,0.0808716,0.768494,-0.626343,0.256498,0.0569821,-1.7666
9920873488,1,-2,-4,0,1,-2,0,-2,9920851163,-0.0551758,0.276855,0.973633,9920851163,-11.75,-0.5,-10.9375,9920851163,-0.102966,0.0808716,0.768494,-0.626343,0.256498,0.0569821,-1.7666
9920873488,1,2,4,0,-3,2,2,1,9920874273,-0.0874023,0.265625,0.975586,9920874273,-14.75,-4.375,-4.125,9920874273,-0.101196,0.0791626,0.769226,-0.625916,0.251511,0.0566177,-1.76835
9920875074,-3,-1,1,2,-1,0,-1,-9,9920874273,-0.0874023,0.265625,0.975586,9920874273,-14.75,-4.375,-4.125,9920874273,-0.101196,0.0791626,0.769226,-0.625916,0.251511,0.0566177,-1.76835
9920875074,2,-3,-3,-3,-2,0,-1,3,9920874273,-0.0874023,0.265625,0.975586,9920874273,-14.75,-4.375,-4.125,9920874273,-0.101196,0.0791626,0.769226,-0.625916,0.251511,0.0566177,-1.76835
9920887800,0,3,-1,0,-2,-1,-3,-3,9920874273,-0.0874023,0.265625,0.975586,9920874273,-14.75,-4.375,-4.125,9920874273,-0.101196,0.0791626,0.769226,-0.625916,0.251511,0.0566177,-1.76835
9920887800,-2,-1,-4,-2,-1,-3,2,1,9920888622,-0.0908203,0.234863,0.989746,9920888622,-6.5625,-4.6875,2.25,9920888622,-0.100037,0.0784302,0.769165,-0.626221,0.248885,0.0556889,-1.76792
9920894614,1,-3,0,-3,1,0,-3,-1,9920888622,-0.0908203,0.234863,0.989746,9920888622,-6.5625,-4.6875,2.25,9920888622,-0.100037,0.0784302,0.769165,-0.626221,0.248885,0.0556889,-1.76792
9920894614,-1,2,4,-3,-3,-1,1,-1,9920888622,-0.0908203,0.234863,0.989746,9920888622,-6.5625,-4.6875,2.25,9920888622,-0.100037,0.0784302,0.769165,-0.626221,0.248885,0.0556889,-1.76792
9920910399,0,-1,-1,-4,-2,0,0,2,9920888622,-0.0908203,0.234863,0.989746,9920888622,-6.5625,-4.6875,2.25,9920888622,-0.100037,0.0784302,0.769165,-0.626221,0.248885,0.0556889,-1.76792
9920910399,-1,-2,-3,0,-1,-1,-2,-2,9920911092,-0.0898438,0.186035,1.00244,9920911092,2.25,-2.3125,-3.125,9920911092,-0.0998535,0.078064,0.769653,-0.625732,0.248049,0.0560402,-1.76933
9920917134,-2,-1,-1,3,-2,-2,-1,-1,9920911092,-0.0898438,0.186035,1.00244,9920911092,2.25,-2.3125,-3.125,9920911092,-0.0998535,0.078064,0.769653,-0.625732,0.248049,0.0560402,-1.76933
9920917134,-1,-2,-5,2,-5,0,-2,0,9920911092,-0.0898438,0.186035,1.00244,9920911092,2.25,-2.3125,-3.125,9920911092,-0.0998535,0.078064,0.769653,-0.625732,0.248049,0.0560402,-1.76933
9920933469,4,1,2,-1,0,-4,-1,0,9920911092,-0.0898438,0.186035,1.00244,9920911092,2.25,-2.3125,-3.125,9920911092,-0.0998535,0.078064,0.769653,-0.625732,0.248049,0.0560402,-1.76933
9920933469,-2,1,-2,0,2,-2,-4,1,9920934244,-0.0546875,0.235352,0.963379,9920934244,8.375,-3,-0.4375,9920934244,-0.100281,0.0794067,0.769653,-0.625549,0.250685,0.055045,-1.76974
9920935070,-2,-1,-1,-2,1,-2,2,1,9920934244,-0.0546875,0.235352,0.963379,9920934244,8.375,-3,-0.4375,9920934244,-0.100281,0.0794067,0.769653,-0.625549,0.250685,0.055045,-1.76974
9920935070,-2,-4,-2,1,-7,-3,0,3,9920934244,-0.0546875,0.235352,0.963379,9920934244,8.375,-3,-0.4375,9920934244,-0.100281,0.0794067,0.769653,-0.625549,0.250685,0.055045,-1.76974
9920947768,-1,0,-4,-3,2,0,-3,-3,9920934244,-0.0546875,0.235352,0.963379,9920934244,8.375,-3,-0.4375,9920934244,-0.100281,0.0794067,0.769653,-0.625549,0.250685,0.055045,-1.76974
9920947768,-1,-3,2,1,-5,0,2,-3,9920948590,-0.0224609,0.24707,0.960449,9920948590,7.6875,-7.4375,-2.3125,9920948590,-0.0998535,0.0814209,0.769897,-0.625,0.253225,0.0520012,-1.77115
9920954643,0,2,-3,-4,-2,-1,-5,-1,9920948590,-0.0224609,0.24707,0.960449,9920948590,7.6875,-7.4375,-2.3125,9920948590,-0.0998535,0.0814209,0.769897,-0.625,0.253225,0.0520012,-1.77115
9920954643,2,-2,-1,4,0,-1,2,-3,9920948590,-0.0224609,0.24707,0.960449,9920948590,7.6875,-7.4375,-2.3125,9920948590,-0.0998535,0.0814209,0.769897,-0.625,0.253225,0.0520012,-1.77115
9920970540,-1,-3,2,0,-3,0,-1,0,9920948590,-0.0224609,0.24707,0.960449,9920948590,7.6875,-7.4375,-2.3125,9920948590,-0.0998535,0.0814209,0.769897,-0.625,0.253225,0.0520012,-1.77115
9920970540,-3,-1,-4,1,-1,-2,-3,-6,9920971245,-0.0341797,0.259766,0.963379,9920971245,4.9375,-6,1.75,9920971245,-0.0994873,0.0830078,0.769714,-0.625122,0.255238,0.0493937,-1.77107
9920977409,-1,-2,-5,1,0,-1,2,5,9920971245,-0.0341797,0.259766,0.963379,9920971245,4.9375,-6,1.75,9920971245,-0.0994873,0.0830078,0.769714,-0.625122,0.255238,0.0493937,-1.77107
9920977409,2,2,3,0,1,-4,-2,0,9920971245,-0.0341797,0.259766,0.963379,9920971245,4.9375,-6,1.75,9920971245,-0.0994873,0.0830078,0.769714,-0.625122,0.255238,0.0493937,-1.77107
9920993757,-1,1,2,-3,1,-1,2,-4,9920971245,-0.0341797,0.259766,0.963379,9920971245,4.9375,-6,1.75,9920971245,-0.0994873,0.0830078,0.769714,-0.625122,0.255238,0.0493937,-1.77107
9920993757,-2,0,-6,-5,1,-1,0,1,9920994331,-0.0986328,0.251465,0.999023,9920994331,6,-2.3125,3.0625,9920994331,-0.100159,0.0836182,0.769409,-0.625305,0.257067,0.0495726,-1.77032
9920995165,-2,-1,1,1,0,-1,-3,-4,9920994331,-0.0986328,0.251465,0.999023,9920994331,6,-2.3125,3.0625,9920994331,-0.100159,0.0836182,0.769409,-0.625305,0.257067,0.0495726,-1.77032
9920995165,-1,-2,-7,0,1,-3,0,1,9920994331,-0.0986328,0.251465,0.999023,9920994331,6,-2.3125,3.0625,9920994331,-0.100159,0.0836182,0.769409,-0.625305,0.257067,0.0495726,-1.77032
9921007970,-1,-1,1,1,-2,0,-2,1,9920994331,-0.0986328,0.251465,0.999023,9920994331,6,-2.3125,3.0625,9920994331,-0.100159,0.0836182,0.769409,-0.625305,0.257067,0.0495726,-1.77032
9921007970,-1,-2,4,-2,1,-2,-1,1,9921008696,-0.00537109,0.234375,0.97998,9921008696,11.25,0.3125,-1.5625,9921008696,-0.10083,0.085144,0.769409,-0.625,0.260294,0.0487484,-1.77084
9921014655,-2,-1,1,-3,-4,-2,-1,-9,9921008696,-0.00537109,0.234375,0.97998,9921008696,11.25,0.3125,-1.5625,9921008696,-0.10083,0.085144,0.769409,-0.625,0.260294,0.0487484,-1.77084
9921014655,-1,-1,-2,-1,-2,-2,-4,-1,9921008696,-0.00537109,0.234375,0.97998,9921008696,11.25,0.3125,-1.5625,9921008696,-0.10083,0.085144,0.769409,-0.625,0.260294,0.0487484,-1.77084
9921030393,-1,-2,-1,-1,-1,0,1,0,9921008696,-0.00537109,0.234375,0.97998,9921008696,11.25,0.3125,-1.5625,9921008696,-0.10083,0.085144,0.769409,-0.625,0.260294,0.0487484,-1.77084
9921030393,-1,-4,-2,-2,-2,-1,-2,-4,9921031188,0.03125,0.292969,0.977539,9921031188,7.9375,1.9375,-5.6875,9921031188,-0.101501,0.086792,0.769714,-0.624207,0.26367,0.0479203,-1.77239
9921037271,2,1,-1,-3,-3,1,-1,1,9921031188,0.03125,0.292969,0.977539,9921031188,7.9375,1.9375,-5.6875,9921031188,-0.101501,0.086792,0.769714,-0.624207,0.26367,0.0479203,-1.77239
9921037271,-1,-1,2,-3,1,-1,3,-3,9921031188,0.03125,0.292969,0.977539,9921031188,7.9375,1.9375,-5.6875,9921031188,-0.101501,0.086792,0.769714,-0.624207,0.26367,0.0479203,-1.77239
9921053643,-4,-4,-5,-1,0,1,-4,2,9921031188,0.03125,0.292969,0.977539,9921031188,7.9375,1.9375,-5.6875,9921031188,-0.101501,0.086792,0.769714,-0.624207,0.26367,0.0479203,-1.77239
9921053643,-2,1,4,0,-2,-2,-5,-6,9921054381,-0.00390625,0.269043,0.947266,9921054381,5.8125,2.6875,-1.625,9921054381,-0.102234,0.0877075,0.769714,-0.624023,0.266041,0.047937,-1.7727
9921055107,1,-1,0,3,0,-3,3,2,9921054381,-0.00390625,0.269043,0.947266,9921054381,5.8125,2.6875,-1.625,9921054381,-0.102234,0.0877075,0.769714,-0.624023,0.266041,0.047937,-1.7727
9921055107,-1,0,-3,-1,-3,-1,-3,0,9921054381,-0.00390625,0.269043,0.947266,9921054381,5.8125,2.6875,-1.625,9921054381,-0.102234,0.0877075,0.769714,-0.624023,0.266041,0.047937,-1.7727
9921067282,0,-2,-5,-2,-4,-2,-3,-5,9921054381,-0.00390625,0.269043,0.947266,9921054381,5.8125,2.6875,-1.625,9921054381,-0.102234,0.0877075,0.769714,-0.624023,0.266041,0.047937,-1.7727
9921067282,-3,0,-2,-2,0,1,1,0,9921075507,-0.0766602,0.271484,0.95166,9921075507,2.25,2.3125,-4.9375,9921075507,-0.10321,0.0875854,0.770203,-0.623291,0.267068,0.0498241,-1.77421
9921076208,-2,-2,-1,-2,2,1,-1,-4,9921075507,-0.0766602,0.271484,0.95166,9921075507,2.25,2.3125,-4.9375,9921075507,-0.10321,0.0875854,0.770203,-0.623291,0.267068,0.0498241,-1.77421
9921076208,-2,2,4,-2,-1,0,4,1,9921075507,-0.0766602,0.271484,0.95166,9921075507,2.25,2.3125,-4.9375,9921075507,-0.10321,0.0875854,0.770203,-0.623291,0.267068,0.0498241,-1.77421
9921090471,1,-1,-3,-2,0,-3,0,-1,9921075507,-0.0766602,0.271484,0.95166,9921075507,2.25,2.3125,-4.9375,9921075507,-0.10321,0.0875854,0.770203,-0.623291,0.267068,0.0498241,-1.77421
9921090471,-1,-1,-3,2,-1,-2,-1,-1,9921091234,-0.118164,0.260254,0.96875,9921091234,5.625,-2.3125,-3.125,9921091234,-0.104126,0.0879517,0.770569,-0.62262,0.268777,0.0509737,-1.77551
9921097241,-3,0,1,1,0,2,-5,-1,9921091234,-0.118164,0.260254,0.96875,9921091234,5.625,-2.3125,-3.125,9921091234,-0.104126,0.0879517,0.770569,-0.62262,0.268777,0.0509737,-1.77551
9921097241,0,-3,-4,1,1,3,-2,-1,9921091234,-0.118164,0.260254,0.96875,9921091234,5.625,-2.3125,-3.125,9921091234,-0.104126,0.0879517,0.770569,-0.62262,0.268777,0.0509737,-1.77551
9921113564,1,0,-1,-1,-1,1,0,-2,9921091234,-0.118164,0.260254,0.96875,9921091234,5.625,-2.3125,-3.125,9921091234,-0.104126,0.0879517,0.770569,-0.62262,0.268777,0.0509737,-1.77551
9921113564,2,2,-1,2,-1,1,1,-1,9921114333,-0.0546875,0.255859,0.968262,9921114333,9.0625,-1.875,-6.125,9921114333,-0.104919,0.0891113,0.771118,-0.621643,0.27155,0.0510418,-1.77766
9921115159,-1,-4,-3,3,-2,-2,0,1,9921114333,-0.0546875,0.255859,0.968262,9921114333,9.0625,-1.875,-6.125,9921114333,-0.104919,0.0891113,0.771118,-0.621643,0.27155,0.0510418,-1.77766
9921115159,-2,1,-2,1,1,-1,-2,2,9921114333,-0.0546875,0.255859,0.968262,9921114333,9.0625,-1.875,-6.125,9921114333,-0.104919,0.0891113,0.771118,-0.621643,0.27155,0.0510418,-1.77766
9921127276,-1,0,11,1,-3,2,-1,-1,9921114333,-0.0546875,0.255859,0.968262,9921114333,9.0625,-1.875,-6.125,9921114333,-0.104919,0.0891113,0.771118,-0.621643,0.27155,0.0510418,-1.77766
9921127276,0,1,1,5,-1,-3,0,3,9921135568,0.00390625,0.273926,0.954102,9921135568,8.625,0.75,-10,9921135568,-0.105591,0.0904541,0.771973,-0.620239,0.274421,0.050842,-1.78086
9921136158,-2,0,-4,-2,-1,0,3,1,9921135568,0.00390625,0.273926,0.954102,9921135568,8.625,0.75,-10,9921135568,-0.105591,0.0904541,0.771973,-0.620239,0.274421,0.050842,-1.78086
9921136158,-5,-1,-5,-5,-1,-3,-1,-6,9921135568,0.00390625,0.273926,0.954102,9921135568,8.625,0.75,-10,9921135568,-0.105591,0.0904541,0.771973,-0.620239,0.274421,0.050842,-1.78086
9921150572,0,-2,-2,-1,-3,-2,-2,3,9921135568,0.00390625,0.273926,0.954102,9921135568,8.625,0.75,-10,9921135568,-0.105591,0.0904541,0.771973,-0.620239,0.274421,0.050842,-1.78086
9921150572,1,0,1,-1,-1,0,-1,2,9921151162,-0.000976562,0.302734,0.947754,9921151162,9.1875,0.625,-5.5,9921151162,-0.106567,0.0922241,0.772339,-0.619385,0.2784,0.0503892,-1.78267
9921157290,1,-1,-1,0,-3,2,2,-1,9921151162,-0.000976562,0.302734,0.947754,9921151162,9.1875,0.625,-5.5,9921151162,-0.106567,0.0922241,0.772339,-0.619385,0.2784,0.0503892,-1.78267
9921157290,-1,-4,1,-4,-2,0,-5,-3,9921151162,-0.000976562,0.302734,0.947754,9921151162,9.1875,0.625,-5.5,9921151162,-0.106567,0.0922241,0.772339,-0.619385,0.2784,0.0503892,-1.78267
9921173643,1,1,0,-1,2,-1,6,3,9921151162,-0.000976562,0.302734,0.947754,9921151162,9.1875,0.625,-5.5,9921151162,-0.106567,0.0922241,0.772339,-0.619385,0.2784,0.0503892,-1.78267
9921173643,0,-4,-3,-4,-2,0,-5,-1,9921174352,-0.0625,0.287598,0.973145,9921174352,5,2.3125,-2.75,9921174352,-0.107605,0.0925903,0.772522,-0.618896,0.280273,0.0516698,-1.78341
9921175142,0,0,0,-4,3,-4,-4,-2,9921174352,-0.0625,0.287598,0.973145,9921174352,5,2.3125,-2.75,9921174352,-0.107605,0.0925903,0.772522,-0.618896,0.280273,0.0516698,-1.78341
9921175142,0,0,2,2,-2,-1,1,2,9921174352,-0.0625,0.287598,0.973145,9921174352,5,2.3125,-2.75,9921174352,-0.107605,0.0925903,0.772522,-0.618896,0.280273,0.0516698,-1.78341
9921187253,-1,-2,-3,0,0,1,-3,-3,9921174352,-0.0625,0.287598,0.973145,9921174352,5,2.3125,-2.75,9921174352,-0.107605,0.0925903,0.772522,-0.618896,0.280273,0.0516698,-1.78341
9921187253,-2,-5,-2,-1,-1,-1,0,-2,9921195580,-0.109863,0.272949,0.968262,9921195580,6.6875,-0.25,-1,9921195580,-0.108826,0.0930176,0.772583,-0.618591,0.2825,0.053099,-1.78376
9921196149,-2,2,1,0,0,-3,1,0,9921195580,-0.109863,0.272949,0.968262,9921195580,6.6875,-0.25,-1,9921195580,-0.108826,0.0930176,0.772583,-0.618591,0.2825,0.053099,-1.78376
9921196149,-3,0,-2,1,0,0,1,-1,9921195580,-0.109863,0.272949,0.968262,9921195580,6.6875,-0.25,-1,9921195580,-0.108826,0.0930176,0.772583,-0.618591,0.2825,0.053099,-1.78376
9921210315,-1,-1,-1,2,-1,-4,-5,0,9921195580,-0.109863,0.272949,0.968262,9921195580,6.6875,-0.25,-1,9921195580,-0.108826,0.0930176,0.772583,-0.618591,0.2825,0.053099,-1.78376
9921210315,-2,-1,-3,-3,0,-4,1,-2,9921211120,-0.0600586,0.277832,0.964844,9921211120,10.4375,-2.75,0.4375,9921211120,-0.109558,0.0946045,0.7724,-0.618408,0.285913,0.0522607,-1.7838
9921217162,1,-2,-5,-2,-2,-2,2,-1,9921211120,-0.0600586,0.277832,0.964844,9921211120,10.4375,-2.75,0.4375,9921211120,-0.109558,0.0946045,0.7724,-0.618408,0.285913,0.0522607,-1.7838
9921217162,1,-2,-4,0,-1,-3,-1,3,9921211120,-0.0600586,0.277832,0.964844,9921211120,10.4375,-2.75,0.4375,9921211120,-0.109558,0.0946045,0.7724,-0.618408,0.285913,0.0522607,-1.7838
9921233463,-4,-3,0,1,-1,-1,-3,-6,9921211120,-0.0600586,0.277832,0.964844,9921211120,10.4375,-2.75,0.4375,9921211120,-0.109558,0.0946045,0.7724,-0.618408,0.285913,0.0522607,-1.7838
9921233463,-1,-1,0,-3,-3,1,-2,-1,9921234247,-0.0209961,0.303223,0.958008,9921234247,9.9375,-1.8125,-2.5,9921234247,-0.110291,0.0964966,0.772522,-0.617859,0.289793,0.0511835,-1.78491
9921235070,-1,-2,1,-6,-1,0,-2,0,9921234247,-0.0209961,0.303223,0.958008,9921234247,9.9375,-1.8125,-2.5,9921234247,-0.110291,0.0964966,0.772522,-0.617859,0.289793,0.0511835,-1.78491
9921235070,1,-1,1,1,0,0,2,-3,9921234247,-0.0209961,0.303223,0.958008,9921234247,9.9375,-1.8125,-2.5,9921234247,-0.110291,0.0964966,0.772522,-0.617859,0.289793,0.0511835,-1.78491
9921247182,-2,-2,-3,-3,-8,-3,-1,0,9921234247,-0.0209961,0.303223,0.958008,9921234247,9.9375,-1.8125,-2.5,9921234247,-0.110291,0.0964966,0.772522,-0.617859,0.289793,0.0511835,-1.78491
9921247182,0,-3,-4,0,2,-3,-2,-2,9921255398,-0.0292969,0.297363,0.95459,9921255398,8.9375,-0.375,-1.125,9921255398,-0.111084,0.0979614,0.772461,-0.617554,0.293092,0.0506448,-1.78529
9921256111,-4,-1,0,2,-2,-1,-3,1,9921255398,-0.0292969,0.297363,0.95459,9921255398,8.9375,-0.375,-1.125,9921255398,-0.111084,0.0979614,0.772461,-0.617554,0.293092,0.0506448,-1.78529
9921256111,-3,3,1,-3,-3,-2,-1,-2,9921255398,-0.0292969,0.297363,0.95459,9921255398,8.9375,-0.375,-1.125,9921255398,-0.111084,0.0979614,0.772461,-0.617554,0.293092,0.0506448,-1.78529
9921270332,1,1,1,-2,2,1,0,-1,9921255398,-0.0292969,0.297363,0.95459,9921255398,8.9375,-0.375,-1.125,9921255398,-0.111084,0.0979614,0.772461,-0.617554,0.293092,0.0506448,-1.78529
9921270332,1,-2,-3,-3,-4,-4,-1,-2,9921271119,-0.0561523,0.292969,0.961914,9921271119,6.875,-1,-1.75,9921271119,-0.111816,0.098938,0.772522,-0.617188,0.295544,0.0506563,-1.78588
9921277140,0,-3,-6,2,-5,-2,-4,-3,9921271119,-0.0561523,0.292969,0.961914,9921271119,6.875,-1,-1.75,9921271119,-0.111816,0.098938,0.772522,-0.617188,0.295544,0.0506563,-1.78588
9921277140,-1,-2,-2,0,4,2,0,4,9921271119,-0.0561523,0.292969,0.961914,9921271119,6.875,-1,-1.75,9921271119,-0.111816,0.098938,0.772522,-0.617188,0.295544,0.0506563,-1.78588
9921293475,-1,4,0,-2,-1,0,1,-3,9921271119,-0.0561523,0.292969,0.961914,9921271119,6.875,-1,-1.75,9921271119,-0.111816,0.098938,0.772522,-0.617188,0.295544,0.0506563,-1.78588
9921293475,1,0,2,1,1,-1,-1,2,9921294259,-0.090332,0.29834,0.970215,9921294259,5.5,-1.125,-1.1875,9921294259,-0.11261,0.0994873,0.772583,-0.616821,0.297395,0.0512916,-1.78632
9921295080,-1,-3,-1,-1,0,0,-1,-3,9921294259,-0.090332,0.29834,0.970215,9921294259,5.5,-1.125,-1.1875,9921294259,-0.11261,0.0994873,0.772583,-0.616821,0.297395,0.0512916,-1.78632
9921295080,0,0,-1,-1,-1,-2,-1,-1,9921294259,-0.090332,0.29834,0.970215,9921294259,5.5,-1.125,-1.1875,9921294259,-0.11261,0.0994873,0.772583,-0.616821,0.297395,0.0512916,-1.78632
9921307142,-1,-1,-1,-2,2,0,-2,0,9921294259,-0.090332,0.29834,0.970215,9921294259,5.5,-1.125,-1.1875,9921294259,-0.11261,0.0994873,0.772583,-0.616821,0.297395,0.0512916,-1.78632
9921307142,0,0,2,2,0,2,0,0,9921315333,-0.0883789,0.299316,0.975586,9921315333,4.6875,-2.5625,-0.4375,9921315333,-0.113159,0.100098,0.772644,-0.616577,0.29905,0.0514504,-1.78676
9921316121,-2,-5,-3,-1,-3,0,-2,-4,9921315333,-0.0883789,0.299316,0.975586,9921315333,4.6875,-2.5625,-0.4375,9921315333,-0.113159,0.100098,0.772644,-0.616577,0.29905,0.0514504,-1.78676
9921316121,2,1,-2,1,-2,-2,-1,0,9921315333,-0.0883789,0.299316,0.975586,9921315333,4.6875,-2.5625,-0.4375,9921315333,-0.113159,0.100098,0.772644,-0.616577,0.29905,0.0514504,-1.78676
9921330405,-4,-3,0,0,4,-3,-3,-2,9921315333,-0.0883789,0.299316,0.975586,9921315333,4.6875,-2.5625,-0.4375,9921315333,-0.113159,0.100098,0.772644,-0.616577,0.29905,0.0514504,-1.78676
9921330405,0,3,-1,-3,0,-1,3,5,9921331092,-0.0449219,0.299805,0.955566,9921331092,5.75,-6.125,-2.125,9921331092,-0.112915,0.101562,0.772888,-0.616089,0.301012,0.0494185,-1.78811
9921337263,-1,0,-2,-4,-2,-4,-3,-3,9921331092,-0.0449219,0.299805,0.955566,9921331092,5.75,-6.125,-2.125,9921331092,-0.112915,0.101562,0.772888,-0.616089,0.301012,0.0494185,-1.78811
9921337263,-1,-1,-2,-5,-4,-1,-2,-1,9921331092,-0.0449219,0.299805,0.955566,9921331092,5.75,-6.125,-2.125,9921331092,-0.112915,0.101562,0.772888,-0.616089,0.301012,0.0494185,-1.78811
9921353648,-1,-2,-3,0,-8,0,0,0,9921331092,-0.0449219,0.299805,0.955566,9921331092,5.75,-6.125,-2.125,9921331092,-0.112915,0.101562,0.772888,-0.616089,0.301012,0.0494185,-1.78811
9921353648,-3,-2,-2,2,3,-1,-3,-5,9921354296,-0.0205078,0.319824,0.941895,9921354296,0.0625,-3.1875,-6.4375,9921354296,-0.112549,0.102234,0.77356,-0.615173,0.301539,0.0483622,-1.79052
9921355096,1,4,6,1,-1,0,2,0,9921354296,-0.0205078,0.319824,0.941895,9921354296,0.0625,-3.1875,-6.4375,9921354296,-0.112549,0.102234,0.77356,-0.615173,0.301539,0.0483622,-1.79052
9921355096,-1,-2,-4,1,1,-2,0,3,9921354296,-0.0205078,0.319824,0.941895,9921354296,0.0625,-3.1875,-6.4375,9921354296,-0.112549,0.102234,0.77356,-0.615173,0.301539,0.0483622,-1.79052
9921367316,-2,-2,-7,-2,-5,0,-1,-8,9921354296,-0.0205078,0.319824,0.941895,9921354296,0.0625,-3.1875,-6.4375,9921354296,-0.112549,0.102234,0.77356,-0.615173,0.301539,0.0483622,-1.79052
9921367316,-2,-1,1,-4,-4,-1,-1,0,9921375559,-0.0297852,0.300293,0.952637,9921375559,-3.8125,-0.9375,0.4375,9921375559,-0.111938,0.102051,0.77356,-0.615295,0.300473,0.0476174,-1.79044
9921376235,-1,-1,-2,-3,-1,0,-2,1,9921375559,-0.0297852,0.300293,0.952637,9921375559,-3.8125,-0.9375,0.4375,9921375559,-0.111938,0.102051,0.77356,-0.615295,0.300473,0.0476174,-1.79044
9921376235,1,-1,-1,2,3,0,1,-3,9921375559,-0.0297852,0.300293,0.952637,9921375559,-3.8125,-0.9375,0.4375,9921375559,-0.111938,0.102051,0.77356,-0.615295,0.300473,0.0476174,-1.79044
9921390523,1,1,3,4,-6,-1,1,2,9921375559,-0.0297852,0.300293,0.952637,9921375559,-3.8125,-0.9375,0.4375,9921375559,-0.111938,0.102051,0.77356,-0.615295,0.300473,0.0476174,-1.79044
9921390523,0,0,-3,2,3,0,2,2,9921391275,-0.0795898,0.270508,0.969238,9921391275,-2.75,2.3125,1.6875,9921391275,-0.112,0.100952,0.773499,-0.615601,0.298848,0.0489901,-1.78979
9921397196,-3,1,-1,-1,-6,-1,1,-6,9921391275,-0.0795898,0.270508,0.969238,9921391275,-2.75,2.3125,1.6875,9921391275,-0.112,0.100952,0.773499,-0.615601,0.298848,0.0489901,-1.78979
9921397196,0,-3,6,-1,-1,4,-5,-1,9921391275,-0.0795898,0.270508,0.969238,9921391275,-2.75,2.3125,1.6875,9921391275,-0.112,0.100952,0.773499,-0.615601,0.298848,0.0489901,-1.78979
9921413558,2,0,-1,-3,1,0,-1,-1,9921391275,-0.0795898,0.270508,0.969238,9921391275,-2.75,2.3125,1.6875,9921391275,-0.112,0.100952,0.773499,-0.615601,0.298848,0.0489901,-1.78979
9921413558,0,-1,-2,-1,-1,-2,-4,-2,9921414272,-0.046875,0.290039,0.962891,9921414272,0.0625,2.5,-1.4375,9921414272,-0.112305,0.100647,0.77356,-0.615479,0.298746,0.0498773,-1.78988
9921415148,2,-1,-1,0,0,0,0,6,9921414272,-0.046875,0.290039,0.962891,9921414272,0.0625,2.5,-1.4375,9921414272,-0.112305,0.100647,0.77356,-0.615479,0.298746,0.0498773,-1.78988
9921415148,-2,-2,-3,-3,-2,1,0,-3,9921414272,-0.046875,0.290039,0.962891,9921414272,0.0625,2.5,-1.4375,9921414272,-0.112305,0.100647,0.77356,-0.615479,0.298746,0.0498773,-1.78988
9921427351,2,-2,-3,1,1,-4,0,1,9921414272,-0.046875,0.290039,0.962891,9921414272,0.0625,2.5,-1.4375,9921414272,-0.112305,0.100647,0.77356,-0.615479,0.298746,0.0498773,-1.78988
9921427351,-1,-2,0,-2,-4,-2,-4,-1,9921435521,-0.0395508,0.324219,0.950684,9921435521,-2.625,1.6875,-0.9375,9921435521,-0.112366,0.100464,0.773621,-0.615417,0.298532,0.0502236,-1.79
9921436175,-1,-3,-3,2,0,0,4,2,9921435521,-0.0395508,0.324219,0.950684,9921435521,-2.625,1.6875,-0.9375,9921435521,-0.112366,0.100464,0.773621,-0.615417,0.298532,0.0502236,-1.79
9921436175,-1,-2,2,2,-3,1,0,-4,9921435521,-0.0395508,0.324219,0.950684,9921435521,-2.625,1.6875,-0.9375,9921435521,-0.112366,0.100464,0.773621,-0.615417,0.298532,0.0502236,-1.79
9921450486,-5,0,-4,3,0,-3,1,2,9921435521,-0.0395508,0.324219,0.950684,9921435521,-2.625,1.6875,-0.9375,9921435521,-0.112366,0.100464,0.773621,-0.615417,0.298532,0.0502236,-1.79
9921450486,-1,2,0,-1,-4,-2,-5,-7,9921451219,-0.046875,0.337402,0.962402,9921451219,-6.0625,2.5,3.0625,9921451219,-0.112305,0.0998535,0.773254,-0.615967,0.297524,0.050689,-1.7886
9921457278,1,0,-1,2,3,-4,2,3,9921451219,-0.046875,0.337402,0.962402,9921451219,-6.0625,2.5,3.0625,9921451219,-0.112305,0.0998535,0.773254,-0.615967,0.297524,0.050689,-1.7886
9921457278,0,2,0,-2,-2,2,1,3,9921451219,-0.046875,0.337402,0.962402,9921451219,-6.0625,2.5,3.0625,9921451219,-0.112305,0.0998535,0.773254,-0.615967,0.297524,0.050689,-1.7886
9921481025,-1,0,-2,-1,-6,1,-4,-3,9921451219,-0.046875,0.337402,0.962402,9921451219,-6.0625,2.5,3.0625,9921451219,-0.112305,0.0998535,0.773254,-0.615967,0.297524,0.050689,-1.7886
9921481025,-1,-2,-3,3,2,-1,3,0,9921481837,-0.0878906,0.269043,0.990723,9921481837,-7.125,1.6875,6.125,9921481837,-0.111755,0.0982666,0.772766,-0.616943,0.294387,0.0514944,-1.78641
9921482617,1,1,-3,-3,0,-2,-4,-2,9921481837,-0.0878906,0.269043,0.990723,9921481837,-7.125,1.6875,6.125,9921481837,-0.111755,0.0982666,0.772766,-0.616943,0.294387,0.0514944,-1.78641
9921482617,1,-1,1,1,1,-2,-1,-1,9921481837,-0.0878906,0.269043,0.990723,9921481837,-7.125,1.6875,6.125,9921481837,-0.111755,0.0982666,0.772766,-0.616943,0.294387,0.0514944,-1.78641
9921487343,-3,0,1,0,1,-2,2,1,9921481837,-0.0878906,0.269043,0.990723,9921481837,-7.125,1.6875,6.125,9921481837,-0.111755,0.0982666,0.772766,-0.616943,0.294387,0.0514944,-1.78641
9921487343,-3,-1,-2,0,-5,1,-2,-1,9921495556,-0.0786133,0.256836,0.980469,9921495556,1.25,2.0625,7.625,9921495556,-0.112,0.0978394,0.771973,-0.617981,0.2941,0.0520189,-1.78373
9921496223,-2,-2,-1,0,1,0,-6,-8,9921495556,-0.0786133,0.256836,0.980469,9921495556,1.25,2.0625,7.625,9921495556,-0.112,0.0978394,0.771973,-0.617981,0.2941,0.0520189,-1.78373
9921496223,-1,-1,-4,-7,-2,-2,0,-2,9921495556,-0.0786133,0.256836,0.980469,9921495556,1.25,2.0625,7.625,9921495556,-0.112,0.0978394,0.771973,-0.617981,0.2941,0.0520189,-1.78373
9921510530,0,-1,-1,-2,-1,0,0,0,9921495556,-0.0786133,0.256836,0.980469,9921495556,1.25,2.0625,7.625,9921495556,-0.112,0.0978394,0.771973,-0.617981,0.2941,0.0520189,-1.78373
9921510530,-1,-4,-1,-1,0,-1,-2,-3,9921511256,-0.0229492,0.286621,0.980957,9921511256,3.3125,1.375,1.9375,9921511256,-0.112122,0.0982666,0.771667,-0.618286,0.294949,0.0515502,-1.78292
9921517345,1,1,-1,-3,0,-2,1,0,9921511256,-0.0229492,0.286621,0.980957,9921511256,3.3125,1.375,1.9375,9921511256,-0.112122,0.0982666,0.771667,-0.618286,0.294949,0.0515502,-1.78292
9921517345,-2,-2,3,-1,-1,-2,-5,-3,9921511256,-0.0229492,0.286621,0.980957,9921511256,3.3125,1.375,1.9375,9921511256,-0.112122,0.0982666,0.771667,-0.618286,0.294949,0.0515502,-1.78292
9921533009,0,1,-1,-3,-1,0,-2,-1,9921511256,-0.0229492,0.286621,0.980957,9921511256,3.3125,1.375,1.9375,9921511256,-0.112122,0.0982666,0.771667,-0.618286,0.294949,0.0515502,-1.78292
9921533009,0,-1,-3,-1,-2,0,1,-5,9921533668,-0.0209961,0.300781,0.970703,9921533668,1.75,-1.1875,1.375,9921533668,-0.111877,0.098938,0.771484,-0.618469,0.295702,0.0502644,-1.7826
9921539750,-3,-4,-2,-4,-3,-4,-3,2,9921533668,-0.0209961,0.300781,0.970703,9921533668,1.75,-1.1875,1.375,9921533668,-0.111877,0.098938,0.771484,-0.618469,0.295702,0.0502644,-1.7826
9921539750,-3,-3,-2,2,-2,-2,1,-2,9921533668,-0.0209961,0.300781,0.970703,9921533668,1.75,-1.1875,1.375,9921533668,-0.111877,0.098938,0.771484,-0.618469,0.295702,0.0502644,-1.7826
9921547147,4,3,0,0,2,2,3,4,9921533668,-0.0209961,0.300781,0.970703,9921533668,1.75,-1.1875,1.375,9921533668,-0.111877,0.098938,0.771484,-0.618469,0.295702,0.0502644,-1.7826
9921547147,-3,-1,1,3,-1,-1,2,1,9921555405,-0.0546875,0.314453,0.981934,9921555405,-2.25,-0.3125,0.4375,9921555405,-0.111755,0.0988159,0.771423,-0.61853,0.295349,0.0502012,-1.78237
9921556153,-3,-2,-2,-1,-3,-2,0,-2,9921555405,-0.0546875,0.314453,0.981934,9921555405,-2.25,-0.3125,0.4375,9921555405,-0.111755,0.0988159,0.771423,-0.61853,0.295349,0.0502012,-1.78237
9921556153,0,-3,-1,-3,-2,-1,-2,-2,9921555405,-0.0546875,0.314453,0.981934,9921555405,-2.25,-0.3125,0.4375,9921555405,-0.111755,0.0988159,0.771423,-0.61853,0.295349,0.0502012,-1.78237
9921570337,-3,-2,0,0,4,0,-4,-1,9921555405,-0.0546875,0.314453,0.981934,9921555405,-2.25,-0.3125,0.4375,9921555405,-0.111755,0.0988159,0.771423,-0.61853,0.295349,0.0502012,-1.78237
9921570337,1,0,0,-4,-2,0,0,0,9921571153,-0.0615234,0.313965,0.963867,9921571153,-6.25,-1.5625,-0.0625,9921571153,-0.111145,0.0982666,0.771545,-0.618591,0.293707,0.0499539,-1.78253
9921577130,0,-2,-1,0,-2,3,3,1,9921571153,-0.0615234,0.313965,0.963867,9921571153,-6.25,-1.5625,-0.0625,9921571153,-0.111145,0.0982666,0.771545,-0.618591,0.293707,0.0499539,-1.78253
9921577130,-2,0,0,3,2,1,-5,-5,9921571153,-0.0615234,0.313965,0.963867,9921571153,-6.25,-1.5625,-0.0625,9921571153,-0.111145,0.0982666,0.771545,-0.618591,0.293707,0.0499539,-1.78253
9921592870,-2,-3,-1,-2,-3,-3,-1,0,9921571153,-0.0615234,0.313965,0.963867,9921571153,-6.25,-1.5625,-0.0625,9921571153,-0.111145,0.0982666,0.771545,-0.618591,0.293707,0.0499539,-1.78253
9921592870,-2,-1,1,0,-5,-1,-2,-4,9921593606,-0.0581055,0.290527,0.963867,9921593606,-11.5,2.5625,0.0625,9921593606,-0.110352,0.0964355,0.771729,-0.618835,0.289835,0.0509895,-1.78237
9921599642,-1,-1,-2,0,0,1,-1,3,9921593606,-0.0581055,0.290527,0.963867,9921593606,-11.5,2.5625,0.0625,9921593606,-0.110352,0.0964355,0.771729,-0.618835,0.289835,0.0509895,-1.78237
9921599642,0,-1,-5,-3,-2,0,3,-2,9921593606,-0.0581055,0.290527,0.963867,9921593606,-11.5,2.5625,0.0625,9921593606,-0.110352,0.0964355,0.771729,-0.618835,0.289835,0.0509895,-1.78237
9921615961,0,-2,0,-1,-5,0,-4,-5,9921593606,-0.0581055,0.290527,0.963867,9921593606,-11.5,2.5625,0.0625,9921593606,-0.110352,0.0964355,0.771729,-0.618835,0.289835,0.0509895,-1.78237
9921615961,1,1,3,-6,3,-4,0,0,9921616764,-0.0551758,0.262695,0.958008,9921616764,-12.125,1.0625,0.3125,9921616764,-0.10907,0.0944824,0.771912,-0.619141,0.285143,0.0514114,-1.78219
9921617583,0,1,2,2,2,0,-2,-1,9921616764,-0.0551758,0.262695,0.958008,9921616764,-12.125,1.0625,0.3125,9921616764,-0.10907,0.0944824,0.771912,-0.619141,0.285143,0.0514114,-1.78219
9921617583,-1,-1,-1,0,-3,-4,1,2,9921616764,-0.0551758,0.262695,0.958008,9921616764,-12.125,1.0625,0.3125,9921616764,-0.10907,0.0944824,0.771912,-0.619141,0.285143,0.0514114,-1.78219
9921630307,0,-1,-6,-2,1,-4,0,0,9921616764,-0.0551758,0.262695,0.958008,9921616764,-12.125,1.0625,0.3125,9921616764,-0.10907,0.0944824,0.771912,-0.619141,0.285143,0.0514114,-1.78219
9921630307,-1,1,-1,-4,-3,-1,0,0,9921631121,-0.0288086,0.274902,0.968262,9921631121,-9.875,1.1875,-5.625,9921631121,-0.107971,0.0930786,0.772644,-0.618652,0.2815,0.051703,-1.78397
9921637318,-2,0,2,-4,-1,-2,-1,-4,9921631121,-0.0288086,0.274902,0.968262,9921631121,-9.875,1.1875,-5.625,9921631121,-0.107971,0.0930786,0.772644,-0.618652,0.2815,0.051703,-1.78397
9921637318,0,-1,-1,-2,-3,-4,-2,0,9921631121,-0.0288086,0.274902,0.968262,9921631121,-9.875,1.1875,-5.625,9921631121,-0.107971,0.0930786,0.772644,-0.618652,0.2815,0.051703,-1.78397
9921652895,-2,-3,-2,0,-4,-1,-2,-1,9921631121,-0.0288086,0.274902,0.968262,9921631121,-9.875,1.1875,-5.625,9921631121,-0.107971,0.0930786,0.772644,-0.618652,0.2815,0.051703,-1.78397
9921652895,-1,0,-5,-1,1,-2,-3,-6,9921653704,-0.0576172,0.286133,0.963379,9921653704,-8.4375,0.75,-2.625,9921653704,-0.107361,0.0918579,0.77301,-0.618469,0.278788,0.0523834,-1.78468
9921659858,0,1,1,0,2,-1,0,2,9921653704,-0.0576172,0.286133,0.963379,9921653704,-8.4375,0.75,-2.625,9921653704,-0.107361,0.0918579,0.77301,-0.618469,0.278788,0.0523834,-1.78468
9921659858,-1,1,-1,-4,-3,-2,-4,-5,9921653704,-0.0576172,0.286133,0.963379,9921653704,-8.4375,0.75,-2.625,9921653704,-0.107361,0.0918579,0.77301,-0.618469,0.278788,0.0523834,-1.78468
9921676143,-1,-4,-3,-6,-3,-3,2,-4,9921653704,-0.0576172,0.286133,0.963379,9921653704,-8.4375,0.75,-2.625,9921653704,-0.107361,0.0918579,0.77301,-0.618469,0.278788,0.0523834,-1.78468
9921676143,1,-2,0,-2,-2,-1,2,-1,9921676838,-0.0629883,0.283691,0.966797,9921676838,-6.9375,-0.9375,0.1875,9921676838,-0.106628,0.0910645,0.773132,-0.618591,0.276615,0.0522361,-1.78475
9921677610,-2,-4,-2,0,1,-1,-2,-3,9921676838,-0.0629883,0.283691,0.966797,9921676838,-6.9375,-0.9375,0.1875,9921676838,-0.106628,0.0910645,0.773132,-0.618591,0.276615,0.0522361,-1.78475
9921677610,-1,5,1,-2,0,-2,2,3,9921676838,-0.0629883,0.283691,0.966797,9921676838,-6.9375,-0.9375,0.1875,9921676838,-0.106628,0.0910645,0.773132,-0.618591,0.276615,0.0522361,-1.78475
9921690526,-2,-2,-3,-2,1,1,-5,0,9921676838,-0.0629883,0.283691,0.966797,9921676838,-6.9375,-0.9375,0.1875,9921676838,-0.106628,0.0910645,0.773132,-0.618591,0.276615,0.0522361,-1.78475
9921690526,1,1,-3,3,-1,-2,-1,-2,9921691251,-0.0712891,0.273926,0.964355,9921691251,-6.0625,-1.125,1.25,9921691251,-0.106018,0.090271,0.773071,-0.618835,0.274595,0.052217,-1.78428
9921697218,-1,-3,-3,-2,-7,-1,-1,-3,9921691251,-0.0712891,0.273926,0.964355,9921691251,-6.0625,-1.125,1.25,9921691251,-0.106018,0.090271,0.773071,-0.618835,0.274595,0.052217,-1.78428
9921697218,-1,-1,4,0,-2,1,3,7,9921691251,-0.0712891,0.273926,0.964355,9921691251,-6.0625,-1.125,1.25,9921691251,-0.106018,0.090271,0.773071,-0.618835,0.274595,0.052217,-1.78428
9921712860,-2,0,0,-3,4,-3,-1,-5,9921691251,-0.0712891,0.273926,0.964355,9921691251,-6.0625,-1.125,1.25,9921691251,-0.106018,0.090271,0.773071,-0.618835,0.274595,0.052217,-1.78428
9921712860,-3,0,0,0,1,-2,4,4,9921713642,-0.0737305,0.267578,0.983398,9921713642,-3.875,-0.25,2.5,9921713642,-0.105652,0.0895996,0.772888,-0.619202,0.273093,0.0523776,-1.78346
9921719790,1,-3,-4,0,-4,-4,-4,0,9921713642,-0.0737305,0.267578,0.983398,9921713642,-3.875,-0.25,2.5,9921713642,-0.105652,0.0895996,0.772888,-0.619202,0.273093,0.0523776,-1.78346
9921719790,-3,-1,-5,-3,-1,0,-3,-3,9921713642,-0.0737305,0.267578,0.983398,9921713642,-3.875,-0.25,2.5,9921713642,-0.105652,0.0895996,0.772888,-0.619202,0.273093,0.0523776,-1.78346
9921736242,2,0,1,4,1,0,-2,0,9921713642,-0.0737305,0.267578,0.983398,9921713642,-3.875,-0.25,2.5,9921713642,-0.105652,0.0895996,0.772888,-0.619202,0.273093,0.0523776,-1.78346
9921736242,-4,-3,-1,0,-3,-1,-3,2,9921736844,-0.0209961,0.283203,0.960449,9921736844,-2.75,-0.0625,-0.0625,9921736844,-0.105225,0.0895996,0.772888,-0.619263,0.272546,0.0517054,-1.78346
9921737676,0,2,0,-4,6,1,1,-1,9921736844,-0.0209961,0.283203,0.960449,9921736844,-2.75,-0.0625,-0.0625,9921736844,-0.105225,0.0895996,0.772888,-0.619263,0.272546,0.0517054,-1.78346
9921737676,1,1,0,1,-3,0,-2,0,9921736844,-0.0209961,0.283203,0.960449,9921736844,-2.75,-0.0625,-0.0625,9921736844,-0.105225,0.0895996,0.772888,-0.619263,0.272546,0.0517054,-1.78346
9921750507,-2,-1,5,0,0,-4,0,-2,9921736844,-0.0209961,0.283203,0.960449,9921736844,-2.75,-0.0625,-0.0625,9921736844,-0.105225,0.0895996,0.772888,-0.619263,0.272546,0.0517054,-1.78346
9921750507,1,-2,-5,1,-2,-4,-4,-3,9921751239,-0.00244141,0.287598,0.953125,9921751239,-6.6875,0.375,-1.25,9921751239,-0.104248,0.0892334,0.773071,-0.619263,0.27072,0.0506862,-1.78389
9921757303,-2,-1,-2,1,-1,-2,1,0,9921751239,-0.00244141,0.287598,0.953125,9921751239,-6.6875,0.375,-1.25,9921751239,-0.104248,0.0892334,0.773071,-0.619263,0.27072,0.0506862,-1.78389
9921757303,-1,-2,-4,-1,1,0,-2,-2,9921751239,-0.00244141,0.287598,0.953125,9921751239,-6.6875,0.375,-1.25,9921751239,-0.104248,0.0892334,0.773071,-0.619263,0.27072,0.0506862,-1.78389
9921772948,-2,1,-1,-2,-1,-1,2,0,9921751239,-0.00244141,0.287598,0.953125,9921751239,-6.6875,0.375,-1.25,9921751239,-0.104248,0.0892334,0.773071,-0.619263,0.27072,0.0506862,-1.78389
9921772948,-2,1,-3,-3,0,-1,-4,-3,9921773667,-0.0463867,0.269531,0.976074,9921773667,-7.1875,0,-3.125,9921773667,-0.103516,0.0882568,0.773499,-0.619019,0.268238,0.0508951,-1.78488
9921779796,-2,1,3,2,-5,-2,-3,-1,9921773667,-0.0463867,0.269531,0.976074,9921773667,-7.1875,0,-3.125,9921773667,-0.103516,0.0882568,0.773499,-0.619019,0.268238,0.0508951,-1.78488
9921779796,-2,-2,1,4,1,-2,0,1,9921773667,-0.0463867,0.269531,0.976074,9921773667,-7.1875,0,-3.125,9921773667,-0.103516,0.0882568,0.773499,-0.619019,0.268238,0.0508951,-1.78488
9921796224,-2,1,-1,0,-1,-2,1,3,9921773667,-0.0463867,0.269531,0.976074,9921773667,-7.1875,0,-3.125,9921773667,-0.103516,0.0882568,0.773499,-0.619019,0.268238,0.0508951,-1.78488
9921796224,-1,-1,-5,-4,-8,0,-3,-6,9921796820,-0.0551758,0.25293,0.961426,9921796820,-3.4375,-1.125,-3.1875,9921796820,-0.103027,0.0877686,0.773926,-0.618652,0.266825,0.0508966,-1.78606
9921797605,0,0,0,-2,3,0,3,0,9921796820,-0.0551758,0.25293,0.961426,9921796820,-3.4375,-1.125,-3.1875,9921796820,-0.103027,0.0877686,0.773926,-0.618652,0.266825,0.0508966,-1.78606
9921797605,-1,-1,-1,1,1,-1,-4,-3,9921796820,-0.0551758,0.25293,0.961426,9921796820,-3.4375,-1.125,-3.1875,9921796820,-0.103027,0.0877686,0.773926,-0.618652,0.266825,0.0508966,-1.78606
9921810551,-2,-1,-1,-2,-4,-1,-3,0,9921796820,-0.0551758,0.25293,0.961426,9921796820,-3.4375,-1.125,-3.1875,9921796820,-0.103027,0.0877686,0.773926,-0.618652,0.266825,0.0508966,-1.78606
9921810551,1,-4,-4,-2,0,0,-1,2,9921811212,-0.0732422,0.275879,0.996582,9921811212,0.75,2.4375,-6.8125,9921811212,-0.103699,0.0873413,0.774597,-0.617676,0.26694,0.0527768,-1.78809
9921817389,-1,-1,1,-3,0,-3,-1,-2,9921811212,-0.0732422,0.275879,0.996582,9921811212,0.75,2.4375,-6.8125,9921811212,-0.103699,0.0873413,0.774597,-0.617676,0.26694,0.0527768,-1.78809
9921817389,1,-3,0,1,-4,-2,2,-1,9921811212,-0.0732422,0.275879,0.996582,9921811212,0.75,2.4375,-6.8125,9921811212,-0.103699,0.0873413,0.774597,-0.617676,0.26694,0.0527768,-1.78809
9921833019,2,-1,-4,1,2,1,-1,-1,9921811212,-0.0732422,0.275879,0.996582,9921811212,0.75,2.4375,-6.8125,9921811212,-0.103699,0.0873413,0.774597,-0.617676,0.26694,0.0527768,-1.78809
9921833019,-2,-3,0,4,-7,-1,-2,-2,9921833777,-0.065918,0.251465,0.960449,9921833777,9.4375,-2.0625,-4.625,9921833777,-0.104553,0.088562,0.775024,-0.616882,0.269907,0.0528225,-1.78986
9921839836,-1,2,-6,1,3,-2,0,0,9921833777,-0.065918,0.251465,0.960449,9921833777,9.4375,-2.0625,-4.625,9921833777,-0.104553,0.088562,0.775024,-0.616882,0.269907,0.0528225,-1.78986
9921839836,-2,-3,1,-5,0,1,-3,-3,9921833777,-0.065918,0.251465,0.960449,9921833777,9.4375,-2.0625,-4.625,9921833777,-0.104553,0.088562,0.775024,-0.616882,0.269907,0.0528225,-1.78986
9921856074,0,-2,4,0,-3,-3,0,1,9921833777,-0.065918,0.251465,0.960449,9921833777,9.4375,-2.0625,-4.625,9921833777,-0.104553,0.088562,0.775024,-0.616882,0.269907,0.0528225,-1.78986
9921856074,1,1,-1,2,2,-2,0,-5,9921856825,-0.0229492,0.288086,0.947266,9921856825,7.5,-1.25,-9.625,9921856825,-0.105225,0.0899658,0.77594,-0.615479,0.272889,0.0525761,-1.79327
9921857587,-2,-2,-1,0,-4,3,-2,0,9921856825,-0.0229492,0.288086,0.947266,9921856825,7.5,-1.25,-9.625,9921856825,-0.105225,0.0899658,0.77594,-0.615479,0.272889,0.0525761,-1.79327
9921857587,-2,0,-2,-2,-3,-3,1,-4,9921856825,-0.0229492,0.288086,0.947266,9921856825,7.5,-1.25,-9.625,9921856825,-0.105225,0.0899658,0.77594,-0.615479,0.272889,0.0525761,-1.79327
9921870381,-1,-1,-4,2,-1,0,-4,-1,9921856825,-0.0229492,0.288086,0.947266,9921856825,7.5,-1.25,-9.625,9921856825,-0.105225,0.0899658,0.77594,-0.615479,0.272889,0.0525761,-1.79327
9921870381,-2,-1,-2,-3,0,0,-1,1,9921871148,-0.0727539,0.276855,0.961426,9921871148,6.625,-0.125,-5.8125,9921871148,-0.106262,0.0906372,0.776428,-0.614502,0.275195,0.0536422,-1.79512
9921877126,-1,-1,-1,0,2,-2,3,-1,9921871148,-0.0727539,0.276855,0.961426,9921871148,6.625,-0.125,-5.8125,9921871148,-0.106262,0.0906372,0.776428,-0.614502,0.275195,0.0536422,-1.79512
9921877126,-2,-1,-2,-3,-4,-1,-2,0,9921871148,-0.0727539,0.276855,0.961426,9921871148,6.625,-0.125,-5.8125,9921871148,-0.106262,0.0906372,0.776428,-0.614502,0.275195,0.0536422,-1.79512
9921892799,-1,-1,-4,-4,0,1,-1,-2,9921871148,-0.0727539,0.276855,0.961426,9921871148,6.625,-0.125,-5.8125,9921871148,-0.106262,0.0906372,0.776428,-0.614502,0.275195,0.0536422,-1.79512
9921892799,-3,1,5,-3,4,0,-2,2,9921893607,-0.109863,0.253906,0.98584,9921893607,13.8125,-1.125,-7.4375,9921893607,-0.107971,0.0918579,0.7771,-0.613159,0.279206,0.0551897,-1.79774
9921899628,0,0,-2,-2,-4,-1,-4,-3,9921893607,-0.109863,0.253906,0.98584,9921893607,13.8125,-1.125,-7.4375,9921893607,-0.107971,0.0918579,0.7771,-0.613159,0.279206,0.0551897,-1.79774
9921899628,-2,-1,-3,-1,-2,-1,-2,-4,9921893607,-0.109863,0.253906,0.98584,9921893607,13.8125,-1.125,-7.4375,9921893607,-0.107971,0.0918579,0.7771,-0.613159,0.279206,0.0551897,-1.79774
9921915969,-3,-2,-4,-2,-5,-2,1,0,9921893607,-0.109863,0.253906,0.98584,9921893607,13.8125,-1.125,-7.4375,9921893607,-0.107971,0.0918579,0.7771,-0.613159,0.279206,0.0551897,-1.79774
9921915969,1,-1,-1,1,0,-2,3,2,9921916806,-0.046875,0.288086,0.949707,9921916806,23.3125,-5.0625,-12.75,9921916806,-0.109985,0.095459,0.778198,-0.610901,0.287311,0.0545759,-1.80262
9921917632,-2,0,2,-2,3,-1,-1,1,9921916806,-0.046875,0.288086,0.949707,9921916806,23.3125,-5.0625,-12.75,9921916806,-0.109985,0.095459,0.778198,-0.610901,0.287311,0.0545759,-1.80262
9921917632,-2,-1,-3,1,1,-1,1,-3,9921916806,-0.046875,0.288086,0.949707,9921916806,23.3125,-5.0625,-12.75,9921916806,-0.109985,0.095459,0.778198,-0.610901,0.287311,0.0545759,-1.80262
9921929690,-1,-3,-3,3,-1,-3,-3,-5,9921916806,-0.046875,0.288086,0.949707,9921916806,23.3125,-5.0625,-12.75,9921916806,-0.109985,0.095459,0.778198,-0.610901,0.287311,0.0545759,-1.80262
9921929690,-1,-2,-2,0,-2,2,0,0,9921937887,0.0395508,0.333984,0.934082,9921937887,16.0625,-9.875,-7.0625,9921937887,-0.110046,0.0996704,0.778687,-0.609558,0.29396,0.0498942,-1.80583
9921938634,1,-2,-1,1,0,-3,-1,-3,9921937887,0.0395508,0.333984,0.934082,9921937887,16.0625,-9.875,-7.0625,9921937887,-0.110046,0.0996704,0.778687,-0.609558,0.29396,0.0498942,-1.80583
9921938634,-1,0,1,1,0,-2,-1,4,9921937887,0.0395508,0.333984,0.934082,9921937887,16.0625,-9.875,-7.0625,9921937887,-0.110046,0.0996704,0.778687,-0.609558,0.29396,0.0498942,-1.80583
9921952851,0,1,2,0,-1,0,5,2,9921937887,0.0395508,0.333984,0.934082,9921937887,16.0625,-9.875,-7.0625,9921937887,-0.110046,0.0996704,0.778687,-0.609558,0.29396,0.0498942,-1.80583
9921952851,-3,-2,-3,-4,-2,-1,-1,0,9921953638,-0.0375977,0.309082,0.943359,9921953638,6.8125,-3.5,-0.0625,9921953638,-0.110291,0.101257,0.778625,-0.609375,0.296779,0.0483615,-1.80626
9921959606,3,0,2,-5,-2,0,-3,-1,9921953638,-0.0375977,0.309082,0.943359,9921953638,6.8125,-3.5,-0.0625,9921953638,-0.110291,0.101257,0.778625,-0.609375,0.296779,0.0483615,-1.80626
9921959606,2,-2,-1,2,-1,1,-1,1,9921953638,-0.0375977,0.309082,0.943359,9921953638,6.8125,-3.5,-0.0625,9921953638,-0.110291,0.101257,0.778625,-0.609375,0.296779,0.0483615,-1.80626
9921991784,0,0,-2,-4,-3,-1,2,1,9921953638,-0.0375977,0.309082,0.943359,9921953638,6.8125,-3.5,-0.0625,9921953638,-0.110291,0.101257,0.778625,-0.609375,0.296779,0.0483615,-1.80626
9921991784,-3,2,4,6,-2,-1,-2,1,9921992499,-0.0454102,0.263184,0.95166,9921992499,3.625,2,-1.5,9921992499,-0.110779,0.101257,0.778687,-0.609192,0.297385,0.0491735,-1.80647
9921993281,-2,-1,-1,-3,-3,-1,-1,-4,9921992499,-0.0454102,0.263184,0.95166,9921992499,3.625,2,-1.5,9921992499,-0.110779,0.101257,0.778687,-0.609192,0.297385,0.0491735,-1.80647
9921993281,-2,-2,-4,2,1,0,2,-1,9921992499,-0.0454102,0.263184,0.95166,9921992499,3.625,2,-1.5,9921992499,-0.110779,0.101257,0.778687,-0.609192,0.297385,0.0491735,-1.80647
9921994086,0,0,0,0,-3,-4,-6,-6,9921992499,-0.0454102,0.263184,0.95166,9921992499,3.625,2,-1.5,9921992499,-0.110779,0.101257,0.778687,-0.609192,0.297385,0.0491735,-1.80647
9921994086,1,2,-2,-2,1,-4,1,-1,9921997892,-0.0292969,0.273438,0.978516,9921997892,4.125,4.0625,-8.4375,9921997892,-0.111511,0.101196,0.77948,-0.608093,0.298156,0.0507898,-1.80899
9921998605,-2,2,-2,2,-1,0,-3,2,9921997892,-0.0292969,0.273438,0.978516,9921997892,4.125,4.0625,-8.4375,9921997892,-0.111511,0.101196,0.77948,-0.608093,0.298156,0.0507898,-1.80899
9921998605,-4,-1,-1,-6,-4,0,-2,-2,9921997892,-0.0292969,0.273438,0.978516,9921997892,4.125,4.0625,-8.4375,9921997892,-0.111511,0.101196,0.77948,-0.608093,0.298156,0.0507898,-1.80899
9922012868,0,-1,-1,-4,-1,0,-2,-2,9921997892,-0.0292969,0.273438,0.978516,9921997892,4.125,4.0625,-8.4375,9921997892,-0.111511,0.101196,0.77948,-0.608093,0.298156,0.0507898,-1.80899
9922012868,-2,-3,-4,-2,-1,0,0,-1,9922013653,-0.0229492,0.30957,0.95166,9922013653,12.375,-1.125,-9.0625,9922013653,-0.112671,0.103149,0.780151,-0.606628,0.302624,0.0506757,-1.812
9922019810,-2,-2,-3,-2,0,-3,0,-2,9922013653,-0.0229492,0.30957,0.95166,9922013653,12.375,-1.125,-9.0625,9922013653,-0.112671,0.103149,0.780151,-0.606628,0.302624,0.0506757,-1.812
9922019810,-1,-3,2,-2,2,0,-2,-5,9922013653,-0.0229492,0.30957,0.95166,9922013653,12.375,-1.125,-9.0625,9922013653,-0.112671,0.103149,0.780151,-0.606628,0.302624,0.0506757,-1.812
9922036150,0,0,-1,-1,2,0,-1,0,9922013653,-0.0229492,0.30957,0.95166,9922013653,12.375,-1.125,-9.0625,9922013653,-0.112671,0.103149,0.780151,-0.606628,0.302624,0.0506757,-1.812
9922036150,-1,-1,0,-2,1,-1,0,-2,9922036912,-0.0322266,0.341309,0.958008,9922036912,7.625,0.5625,-5.5,9922036912,-0.113708,0.104492,0.780518,-0.605774,0.306024,0.0509277,-1.81374
9922037657,1,-2,1,1,-2,-1,0,-1,9922036912,-0.0322266,0.341309,0.958008,9922036912,7.625,0.5625,-5.5,9922036912,-0.113708,0.104492,0.780518,-0.605774,0.306024,0.0509277,-1.81374
9922037657,-1,0,-3,1,-1,1,-4,1,9922036912,-0.0322266,0.341309,0.958008,9922036912,7.625,0.5625,-5.5,9922036912,-0.113708,0.104492,0.780518,-0.605774,0.306024,0.0509277,-1.81374
9922050372,-6,-5,-3,-2,-5,-5,-1,-9,9922036912,-0.0322266,0.341309,0.958008,9922036912,7.625,0.5625,-5.5,9922036912,-0.113708,0.104492,0.780518,-0.605774,0.306024,0.0509277,-1.81374
9922050372,1,-1,0,-2,4,3,1,2,9922051140,-0.0708008,0.322266,0.957031,9922051140,2.125,-2.9375,3.625,9922051140,-0.113831,0.105225,0.780151,-0.606079,0.307359,0.0500822,-1.81287
9922057255,-3,-1,-1,-4,-5,1,-1,0,9922051140,-0.0708008,0.322266,0.957031,9922051140,2.125,-2.9375,3.625,9922051140,-0.113831,0.105225,0.780151,-0.606079,0.307359,0.0500822,-1.81287
9922057255,-1,2,-4,-5,1,-1,-3,0,9922051140,-0.0708008,0.322266,0.957031,9922051140,2.125,-2.9375,3.625,9922051140,-0.113831,0.105225,0.780151,-0.606079,0.307359,0.0500822,-1.81287
9922073062,-1,-1,-3,1,-2,-1,-2,0,9922051140,-0.0708008,0.322266,0.957031,9922051140,2.125,-2.9375,3.625,9922051140,-0.113831,0.105225,0.780151,-0.606079,0.307359,0.0500822,-1.81287
9922073062,-2,0,-1,0,-4,-3,-3,-7,9922073736,-0.111328,0.289062,0.959961,9922073736,0.5625,-3.0625,3.1875,9922073736,-0.113892,0.105042,0.779907,-0.606384,0.307159,0.0502799,-1.81202
9922079683,-2,-1,-2,3,-2,-1,-1,-1,9922073736,-0.111328,0.289062,0.959961,9922073736,0.5625,-3.0625,3.1875,9922073736,-0.113892,0.105042,0.779907,-0.606384,0.307159,0.0502799,-1.81202
9922079683,1,-1,3,-4,0,-1,2,2,9922073736,-0.111328,0.289062,0.959961,9922073736,0.5625,-3.0625,3.1875,9922073736,-0.113892,0.105042,0.779907,-0.606384,0.307159,0.0502799,-1.81202
9922096124,1,1,2,3,1,-2,-1,4,9922073736,-0.111328,0.289062,0.959961,9922073736,0.5625,-3.0625,3.1875,9922073736,-0.113892,0.105042,0.779907,-0.606384,0.307159,0.0502799,-1.81202
9922096124,-2,-2,-2,-2,-2,-3,-3,-5,9922096857,-0.0722656,0.308594,0.958496,9922096857,-0.875,-0.75,0.5625,9922096857,-0.113953,0.105042,0.779907,-0.606384,0.307238,0.0503752,-1.81202
9922097582,0,-1,1,-1,-1,0,-3,-2,9922096857,-0.0722656,0.308594,0.958496,9922096857,-0.875,-0.75,0.5625,9922096857,-0.113953,0.105042,0.779907,-0.606384,0.307238,0.0503752,-1.81202
9922097582,-2,3,-2,1,-3,-2,-1,-5,9922096857,-0.0722656,0.308594,0.958496,9922096857,-0.875,-0.75,0.5625,9922096857,-0.113953,0.105042,0.779907,-0.606384,0.307238,0.0503752,-1.81202
9922118727,0,-3,0,-2,2,-2,1,3,9922096857,-0.0722656,0.308594,0.958496,9922096857,-0.875,-0.75,0.5625,9922096857,-0.113953,0.105042,0.779907,-0.606384,0.307238,0.0503752,-1.81202
9922118727,0,-1,2,1,0,-3,1,-3,9922119430,-0.019043,0.319824,0.972168,9922119430,-4.0625,1.1875,2.5,9922119430,-0.113403,0.104797,0.779663,-0.606873,0.306189,0.0496559,-1.81111
9922120211,0,-3,-2,1,0,-2,1,1,9922119430,-0.019043,0.319824,0.972168,9922119430,-4.0625,1.1875,2.5,9922119430,-0.113403,0.104797,0.779663,-0.606873,0.306189,0.0496559,-1.81111
9922120211,1,-3,-2,-2,-1,-4,-1,-5,9922119430,-0.019043,0.319824,0.972168,9922119430,-4.0625,1.1875,2.5,9922119430,-0.113403,0.104797,0.779663,-0.606873,0.306189,0.0496559,-1.81111
9922133037,-2,1,-2,-2,-2,-1,-1,-1,9922119430,-0.019043,0.319824,0.972168,9922119430,-4.0625,1.1875,2.5,9922119430,-0.113403,0.104797,0.779663,-0.606873,0.306189,0.0496559,-1.81111
9922133037,-1,-1,2,-3,-1,0,0,2,9922133721,-0.0385742,0.302246,0.983398,9922133721,-3.8125,1.6875,4,9922133721,-0.113037,0.104187,0.779236,-0.607544,0.304789,0.0495891,-1.80949
9922139871,-1,-1,0,-1,1,0,0,-1,9922133721,-0.0385742,0.302246,0.983398,9922133721,-3.8125,1.6875,4,9922133721,-0.113037,0.104187,0.779236,-0.607544,0.304789,0.0495891,-1.80949
9922139871,-1,-2,-4,-1,-3,-1,4,5,9922133721,-0.0385742,0.302246,0.983398,9922133721,-3.8125,1.6875,4,9922133721,-0.113037,0.104187,0.779236,-0.607544,0.304789,0.0495891,-1.80949
9922156201,1,-2,-3,-2,-1,1,-3,-3,9922133721,-0.0385742,0.302246,0.983398,9922133721,-3.8125,1.6875,4,9922133721,-0.113037,0.104187,0.779236,-0.607544,0.304789,0.0495891,-1.80949
9922156201,-1,-4,-6,-2,-5,-2,-3,0,9922156830,-0.0576172,0.286133,0.975586,9922156830,-3.8125,-0.0625,7.0625,9922156830,-0.112427,0.103577,0.778625,-0.608582,0.303116,0.0490266,-1.80725
9922157676,1,4,3,-2,5,2,-2,-4,9922156830,-0.0576172,0.286133,0.975586,9922156830,-3.8125,-0.0625,7.0625,9922156830,-0.112427,0.103577,0.778625,-0.608582,0.303116,0.0490266,-1.80725
9922157676,1,-1,-1,0,0,0,-1,-2,9922156830,-0.0576172,0.286133,0.975586,9922156830,-3.8125,-0.0625,7.0625,9922156830,-0.112427,0.103577,0.778625,-0.608582,0.303116,0.0490266,-1.80725
9922169847,-4,2,0,-3,1,0,-1,0,9922156830,-0.0576172,0.286133,0.975586,9922156830,-3.8125,-0.0625,7.0625,9922156830,-0.112427,0.103577,0.778625,-0.608582,0.303116,0.0490266,-1.80725
9922169847,-3,-1,-2,1,-4,-2,-1,-1,9922178104,-0.0908203,0.302246,0.993652,9922178104,-4.375,-4.375,9.875,9922178104,-0.111511,0.103271,0.777771,-0.609863,0.301541,0.0475153,-1.80437
9922178716,-2,-2,-7,-4,-5,0,-2,0,9922178104,-0.0908203,0.302246,0.993652,9922178104,-4.375,-4.375,9.875,9922178104,-0.111511,0.103271,0.777771,-0.609863,0.301541,0.0475153,-1.80437
9922178716,-2,-2,0,1,1,0,-2,-2,9922178104,-0.0908203,0.302246,0.993652,9922178104,-4.375,-4.375,9.875,9922178104,-0.111511,0.103271,0.777771,-0.609863,0.301541,0.0475153,-1.80437
9922193099,-2,0,1,1,0,-1,1,-2,9922178104,-0.0908203,0.302246,0.993652,9922178104,-4.375,-4.375,9.875,9922178104,-0.111511,0.103271,0.777771,-0.609863,0.301541,0.0475153,-1.80437
9922193099,2,-1,1,1,0,-2,-4,-3,9922193682,-0.0537109,0.292969,0.959473,9922193682,-3.9375,-7.375,12.3125,9922193682,-0.109924,0.103699,0.776672,-0.611511,0.300298,0.0439386,-1.80099
9922199688,-3,-3,-3,1,-1,-1,2,2,9922193682,-0.0537109,0.292969,0.959473,9922193682,-3.9375,-7.375,12.3125,9922193682,-0.109924,0.103699,0.776672,-0.611511,0.300298,0.0439386,-1.80099
9922199688,-1,-2,1,-1,2,-3,-3,-6,9922193682,-0.0537109,0.292969,0.959473,9922193682,-3.9375,-7.375,12.3125,9922193682,-0.109924,0.103699,0.776672,-0.611511,0.300298,0.0439386,-1.80099
9922216028,-1,-1,-3,-2,-2,1,-2,2,9922193682,-0.0537109,0.292969,0.959473,9922193682,-3.9375,-7.375,12.3125,9922193682,-0.109924,0.103699,0.776672,-0.611511,0.300298,0.0439386,-1.80099
9922216028,-2,-3,4,2,2,0,0,1,9922216842,-0.0712891,0.384766,0.998535,9922216842,-21.8125,-4.625,7.875,9922216842,-0.107727,0.101929,0.776245,-0.612793,0.294782,0.0423354,-1.79884
9922217636,-3,-1,-2,-2,-3,-1,-2,-4,9922216842,-0.0712891,0.384766,0.998535,9922216842,-21.8125,-4.625,7.875,9922216842,-0.107727,0.101929,0.776245,-0.612793,0.294782,0.0423354,-1.79884
9922217636,0,0,-1,0,-2,-2,-1,1,9922216842,-0.0712891,0.384766,0.998535,9922216842,-21.8125,-4.625,7.875,9922216842,-0.107727,0.101929,0.776245,-0.612793,0.294782,0.0423354,-1.79884
9922229700,-1,1,1,-3,-5,-1,0,-3,9922216842,-0.0712891,0.384766,0.998535,9922216842,-21.8125,-4.625,7.875,9922216842,-0.107727,0.101929,0.776245,-0.612793,0.294782,0.0423354,-1.79884
9922229700,-3,-2,-1,0,4,1,-1,-1,9922237900,0.0810547,0.299316,0.929688,9922237900,-27.5625,6,0.0625,9922237900,-0.104614,0.0986938,0.776428,-0.613586,0.285751,0.0413483,-1.7981
9922238669,1,-4,-1,5,-3,-1,1,2,9922237900,0.0810547,0.299316,0.929688,9922237900,-27.5625,6,0.0625,9922237900,-0.104614,0.0986938,0.776428,-0.613586,0.285751,0.0413483,-1.7981
9922238669,-1,1,2,-2,-5,2,-2,-3,9922237900,0.0810547,0.299316,0.929688,9922237900,-27.5625,6,0.0625,9922237900,-0.104614,0.0986938,0.776428,-0.613586,0.285751,0.0413483,-1.7981
9922252861,-1,-1,-2,-1,-4,1,0,1,9922237900,0.0810547,0.299316,0.929688,9922237900,-27.5625,6,0.0625,9922237900,-0.104614,0.0986938,0.776428,-0.613586,0.285751,0.0413483,-1.7981
9922252861,-1,1,1,-1,3,0,-1,0,9922253662,-0.23877,0.229492,1.03418,9922253662,-36.3125,5.5625,7.0625,9922253662,-0.102722,0.0913696,0.776428,-0.615051,0.271878,0.0471362,-1.7953
9922259625,-4,0,-4,-5,-1,0,-1,0,9922253662,-0.23877,0.229492,1.03418,9922253662,-36.3125,5.5625,7.0625,9922253662,-0.102722,0.0913696,0.776428,-0.615051,0.271878,0.0471362,-1.7953
9922259625,-1,-2,5,1,-3,-2,-2,1,9922253662,-0.23877,0.229492,1.03418,9922253662,-36.3125,5.5625,7.0625,9922253662,-0.102722,0.0913696,0.776428,-0.615051,0.271878,0.0471362,-1.7953
9922276081,1,-2,-1,3,-8,2,-2,-3,9922253662,-0.23877,0.229492,1.03418,9922253662,-36.3125,5.5625,7.0625,9922253662,-0.102722,0.0913696,0.776428,-0.615051,0.271878,0.0471362,-1.7953
9922276081,0,0,0,-3,-6,1,1,2,9922276811,-0.14502,0.201172,0.981934,9922276811,-26.625,4.625,5.5625,9922276811,-0.10083,0.0860596,0.776306,-0.616211,0.261171,0.0505098,-1.79303
9922277606,-1,-7,-4,3,2,0,0,-5,9922276811,-0.14502,0.201172,0.981934,9922276811,-26.625,4.625,5.5625,9922276811,-0.10083,0.0860596,0.776306,-0.616211,0.261171,0.0505098,-1.79303
9922277606,0,3,-6,0,0,3,2,4,9922276811,-0.14502,0.201172,0.981934,9922276811,-26.625,4.625,5.5625,9922276811,-0.10083,0.0860596,0.776306,-0.616211,0.261171,0.0505098,-1.79303
9922289657,0,-4,1,0,4,-2,-1,0,9922276811,-0.14502,0.201172,0.981934,9922276811,-26.625,4.625,5.5625,9922276811,-0.10083,0.0860596,0.776306,-0.616211,0.261171,0.0505098,-1.79303
9922289657,-2,0,-2,-1,-1,-3,-1,1,9922297884,-0.0380859,0.242188,0.982422,9922297884,-22.9375,6.625,1.125,9922297884,-0.0990601,0.0822754,0.776428,-0.616943,0.253024,0.0523314,-1.79211
9922298632,1,0,3,-3,-4,-1,1,-1,9922297884,-0.0380859,0.242188,0.982422,9922297884,-22.9375,6.625,1.125,9922297884,-0.0990601,0.0822754,0.776428,-0.616943,0.253024,0.0523314,-1.79211
9922298632,-2,-2,-1,0,0,-1,-3,1,9922297884,-0.0380859,0.242188,0.982422,9922297884,-22.9375,6.625,1.125,9922297884,-0.0990601,0.0822754,0.776428,-0.616943,0.253024,0.0523314,-1.79211
9922312829,-2,-3,-2,2,-1,-2,0,-2,9922297884,-0.0380859,0.242188,0.982422,9922297884,-22.9375,6.625,1.125,9922297884,-0.0990601,0.0822754,0.776428,-0.616943,0.253024,0.0523314,-1.79211
9922312829,-2,-2,-2,-3,1,-2,3,-1,9922313638,-0.0888672,0.237305,0.99707,9922313638,-10.375,0.5625,2.1875,9922313638,-0.0981445,0.0804443,0.776367,-0.617371,0.249004,0.0530894,-1.79132
9922319625,-2,-2,0,1,-2,-3,-5,-3,9922313638,-0.0888672,0.237305,0.99707,9922313638,-10.375,0.5625,2.1875,9922313638,-0.0981445,0.0804443,0.776367,-0.617371,0.249004,0.0530894,-1.79132
9922319625,-1,-3,1,0,-2,-2,0,-1,9922313638,-0.0888672,0.237305,0.99707,9922313638,-10.375,0.5625,2.1875,9922313638,-0.0981445,0.0804443,0.776367,-0.617371,0.249004,0.0530894,-1.79132
9922336020,-1,-1,-4,-1,1,-2,-2,-2,9922313638,-0.0888672,0.237305,0.99707,9922313638,-10.375,0.5625,2.1875,9922313638,-0.0981445,0.0804443,0.776367,-0.617371,0.249004,0.0530894,-1.79132
9922336020,-1,-1,1,-1,-3,-1,-2,3,9922336767,-0.0400391,0.21875,0.974121,9922336767,-3.1875,0.1875,0.875,9922336767,-0.0975342,0.079834,0.776306,-0.617615,0.247283,0.0528441,-1.79093
9922337582,-4,1,0,4,-4,2,-4,-1,9922336767,-0.0400391,0.21875,0.974121,9922336767,-3.1875,0.1875,0.875,9922336767,-0.0975342,0.079834,0.776306,-0.617615,0.247283,0.0528441,-1.79093
9922337582,-1,-3,-3,-5,1,-4,-2,-2,9922336767,-0.0400391,0.21875,0.974121,9922336767,-3.1875,0.1875,0.875,9922336767,-0.0975342,0.079834,0.776306,-0.617615,0.247283,0.0528441,-1.79093
9922349813,0,0,1,0,1,1,-1,-1,9922336767,-0.0400391,0.21875,0.974121,9922336767,-3.1875,0.1875,0.875,9922336767,-0.0975342,0.079834,0.776306,-0.617615,0.247283,0.0528441,-1.79093
9922349813,1,0,-2,-2,-2,-1,-3,-3,9922358043,-0.0478516,0.243164,0.97168,9922358043,-3.625,2.1875,-2.75,9922358043,-0.0974121,0.0791016,0.776611,-0.61731,0.245952,0.0536682,-1.79168
9922358716,0,0,-1,-1,-2,-2,-2,1,9922358043,-0.0478516,0.243164,0.97168,9922358043,-3.625,2.1875,-2.75,9922358043,-0.0974121,0.0791016,0.776611,-0.61731,0.245952,0.0536682,-1.79168
9922358716,-1,-2,-5,2,-2,-2,0,-1,9922358043,-0.0478516,0.243164,0.97168,9922358043,-3.625,2.1875,-2.75,9922358043,-0.0974121,0.0791016,0.776611,-0.61731,0.245952,0.0536682,-1.79168
9922373032,-1,-1,2,-1,-3,1,0,1,9922358043,-0.0478516,0.243164,0.97168,9922358043,-3.625,2.1875,-2.75,9922358043,-0.0974121,0.0791016,0.776611,-0.61731,0.245952,0.0536682,-1.79168
9922373032,1,-3,-2,3,-1,-2,-1,-8,9922373788,-0.0615234,0.236328,0.965332,9922373788,-1.75,1.625,-0.5625,9922373788,-0.0974731,0.0786133,0.776672,-0.61731,0.245267,0.0543787,-1.79172
9922379762,-1,0,-1,-2,4,0,-4,2,9922373788,-0.0615234,0.236328,0.965332,9922373788,-1.75,1.625,-0.5625,9922373788,-0.0974731,0.0786133,0.776672,-0.61731,0.245267,0.0543787,-1.79172
9922379762,0,1,1,2,-1,1,-4,1,9922373788,-0.0615234,0.236328,0.965332,9922373788,-1.75,1.625,-0.5625,9922373788,-0.0974731,0.0786133,0.776672,-0.61731,0.245267,0.0543787,-1.79172
9922396121,0,-1,2,-3,1,-2,2,-1,9922373788,-0.0615234,0.236328,0.965332,9922373788,-1.75,1.625,-0.5625,9922373788,-0.0974731,0.0786133,0.776672,-0.61731,0.245267,0.0543787,-1.79172
9922396121,1,-1,-1,-2,-5,0,0,-2,9922396899,-0.0581055,0.249023,0.973633,9922396899,-2.5,1.5,-0.875,9922396899,-0.0974731,0.078125,0.776794,-0.617249,0.244499,0.0550159,-1.79195
9922397627,-1,0,0,-3,-2,-2,3,-2,9922396899,-0.0581055,0.249023,0.973633,9922396899,-2.5,1.5,-0.875,9922396899,-0.0974731,0.078125,0.776794,-0.617249,0.244499,0.0550159,-1.79195
9922397627,-3,-2,-3,-3,3,0,-2,-2,9922396899,-0.0581055,0.249023,0.973633,9922396899,-2.5,1.5,-0.875,9922396899,-0.0974731,0.078125,0.776794,-0.617249,0.244499,0.0550159,-1.79195
9922409826,-2,1,-2,-2,-5,-4,-1,1,9922396899,-0.0581055,0.249023,0.973633,9922396899,-2.5,1.5,-0.875,9922396899,-0.0974731,0.078125,0.776794,-0.617249,0.244499,0.0550159,-1.79195
9922409826,-1,0,-1,0,4,0,-1,2,9922417947,-0.0375977,0.246094,0.97168,9922417947,-5.0625,-0.6875,-2.4375,9922417947,-0.0968018,0.0776367,0.7771,-0.617004,0.242857,0.0546721,-1.79277
9922418729,0,0,2,-2,2,-2,-2,-3,9922417947,-0.0375977,0.246094,0.97168,9922417947,-5.0625,-0.6875,-2.4375,9922417947,-0.0968018,0.0776367,0.7771,-0.617004,0.242857,0.0546721,-1.79277
9922418729,2,-2,-4,-6,-1,-1,-2,-2,9922417947,-0.0375977,0.246094,0.97168,9922417947,-5.0625,-0.6875,-2.4375,9922417947,-0.0968018,0.0776367,0.7771,-0.617004,0.242857,0.0546721,-1.79277
9922432902,-1,0,1,-1,2,-1,2,1,9922417947,-0.0375977,0.246094,0.97168,9922417947,-5.0625,-0.6875,-2.4375,9922417947,-0.0968018,0.0776367,0.7771,-0.617004,0.242857,0.0546721,-1.79277
9922432902,0,0,-1,-2,-3,-2,-2,-1,9922433653,-0.0566406,0.243652,0.96875,9922433653,-8.5625,-0.5625,-2.9375,9922433653,-0.0958862,0.0765381,0.777527,-0.61676,0.23995,0.0547242,-1.79378
9922439740,1,-1,-2,-1,-2,-1,1,2,9922433653,-0.0566406,0.243652,0.96875,9922433653,-8.5625,-0.5625,-2.9375,9922433653,-0.0958862,0.0765381,0.777527,-0.61676,0.23995,0.0547242,-1.79378
9922439740,-1,-2,-2,-1,-2,-3,-4,-3,9922433653,-0.0566406,0.243652,0.96875,9922433653,-8.5625,-0.5625,-2.9375,9922433653,-0.0958862,0.0765381,0.777527,-0.61676,0.23995,0.0547242,-1.79378
9922455546,-2,-2,-1,4,-2,1,-2,-3,9922433653,-0.0566406,0.243652,0.96875,9922433653,-8.5625,-0.5625,-2.9375,9922433653,-0.0958862,0.0765381,0.777527,-0.61676,0.23995,0.0547242,-1.79378
9922455546,0,0,1,-1,-1,1,0,2,9922456149,-0.0336914,0.233887,0.96582,9922456149,-13.4375,0.4375,-5.375,9922456149,-0.0944214,0.0747681,0.778259,-0.616272,0.235271,0.0548412,-1.79558
9922462326,0,-1,-2,0,1,-4,1,-2,9922456149,-0.0336914,0.233887,0.96582,9922456149,-13.4375,0.4375,-5.375,9922456149,-0.0944214,0.0747681,0.778259,-0.616272,0.235271,0.0548412,-1.79558
9922462326,-2,1,-1,-1,1,-5,0,-1,9922456149,-0.0336914,0.233887,0.96582,9922456149,-13.4375,0.4375,-5.375,9922456149,-0.0944214,0.0747681,0.778259,-0.616272,0.235271,0.0548412,-1.79558
9922469810,2,0,0,2,-2,-2,0,-1,9922456149,-0.0336914,0.233887,0.96582,9922456149,-13.4375,0.4375,-5.375,9922456149,-0.0944214,0.0747681,0.778259,-0.616272,0.235271,0.0548412,-1.79558
9922469810,-1,1,-3,-2,-1,1,-2,-1,9922478060,-0.050293,0.231445,0.973145,9922478060,-17.9375,-0.4375,-9.75,9922478060,-0.0925293,0.0723267,0.779541,-0.615234,0.22896,0.0552932,-1.79895
9922478679,-1,0,0,4,-7,1,-1,-1,9922478060,-0.050293,0.231445,0.973145,9922478060,-17.9375,-0.4375,-9.75,9922478060,-0.0925293,0.0723267,0.779541,-0.615234,0.22896,0.0552932,-1.79895
9922478679,-2,-1,-1,-2,1,1,2,1,9922478060,-0.050293,0.231445,0.973145,9922478060,-17.9375,-0.4375,-9.75,9922478060,-0.0925293,0.0723267,0.779541,-0.615234,0.22896,0.0552932,-1.79895
9922493043,-3,-1,-2,-3,-2,-5,-1,1,9922478060,-0.050293,0.231445,0.973145,9922478060,-17.9375,-0.4375,-9.75,9922478060,-0.0925293,0.0723267,0.779541,-0.615234,0.22896,0.0552932,-1.79895
9922493043,-2,0,0,-1,-5,-4,-3,-2,9922493740,0.00488281,0.248535,0.971191,9922493740,-29.25,3.125,-15.5,9922493740,-0.0896606,0.0685425,0.781433,-0.613708,0.219268,0.0560267,-1.80393
9922499755,0,1,-3,-2,0,-1,0,-1,9922493740,0.00488281,0.248535,0.971191,9922493740,-29.25,3.125,-15.5,9922493740,-0.0896606,0.0685425,0.781433,-0.613708,0.219268,0.0560267,-1.80393
9922499755,-1,1,-1,1,-3,-2,-1,0,9922493740,0.00488281,0.248535,0.971191,9922493740,-29.25,3.125,-15.5,9922493740,-0.0896606,0.0685425,0.781433,-0.613708,0.219268,0.0560267,-1.80393
9922515456,-2,-3,-2,-2,2,1,-1,-7,9922493740,0.00488281,0.248535,0.971191,9922493740,-29.25,3.125,-15.5,9922493740,-0.0896606,0.0685425,0.781433,-0.613708,0.219268,0.0560267,-1.80393
9922515456,0,-1,0,-3,2,-2,1,2,9922516162,-0.0341797,0.216309,1.00146,9922516162,-35.125,6.4375,-17.8125,9922516162,-0.086792,0.0630493,0.78363,-0.611877,0.206855,0.0589028,-1.80958
9922522328,-2,-2,1,2,-3,-1,-4,-3,9922516162,-0.0341797,0.216309,1.00146,9922516162,-35.125,6.4375,-17.8125,9922516162,-0.086792,0.0630493,0.78363,-0.611877,0.206855,0.0589028,-1.80958
9922522328,-2,-1,2,-2,-2,1,0,3,9922516162,-0.0341797,0.216309,1.00146,9922516162,-35.125,6.4375,-17.8125,9922516162,-0.086792,0.0630493,0.78363,-0.611877,0.206855,0.0589028,-1.80958
9922539120,-1,-1,0,-4,0,0,3,2,9922516162,-0.0341797,0.216309,1.00146,9922516162,-35.125,6.4375,-17.8125,9922516162,-0.086792,0.0630493,0.78363,-0.611877,0.206855,0.0589028,-1.80958
9922539120,-2,-2,-4,0,1,-2,-2,-1,9922539829,-0.0830078,0.211914,0.983398,9922539829,-41.5,6.25,-6.125,9922539829,-0.0836182,0.0566406,0.784607,-0.611694,0.192738,0.0619609,-1.8112
9922540630,0,-1,-1,-1,-2,0,-2,-1,9922539829,-0.0830078,0.211914,0.983398,9922539829,-41.5,6.25,-6.125,9922539829,-0.0836182,0.0566406,0.784607,-0.611694,0.192738,0.0619609,-1.8112
9922540630,-2,1,2,-1,-1,3,0,-3,9922552951,-0.118652,0.154297,1.01074,9922552951,-43.25,4.125,2.5,9922552951,-0.079895,0.0496826,0.784729,-0.612671,0.177166,0.0645585,-1.8101
9922553666,1,-1,-4,-2,0,-1,-1,0,9922552951,-0.118652,0.154297,1.01074,9922552951,-43.25,4.125,2.5,9922552951,-0.079895,0.0496826,0.784729,-0.612671,0.177166,0.0645585,-1.8101
9922553666,-1,-1,-2,-4,1,-4,-3,-8,9922552951,-0.118652,0.154297,1.01074,9922552951,-43.25,4.125,2.5,9922552951,-0.079895,0.0496826,0.784729,-0.612671,0.177166,0.0645585,-1.8101
9922559689,-1,-3,1,-2,-4,-1,-2,2,9922552951,-0.118652,0.154297,1.01074,9922552951,-43.25,4.125,2.5,9922552951,-0.079895,0.0496826,0.784729,-0.612671,0.177166,0.0645585,-1.8101
9922559689,1,-2,-1,2,-1,1,1,4,9922567222,-0.122559,0.203613,0.99707,9922567222,-48.5625,4.875,-1,9922567222,-0.0761719,0.0424805,0.785095,-0.613159,0.161177,0.0675612,-1.80999
9922574701,-4,-1,-1,-4,1,4,-2,1,9922567222,-0.122559,0.203613,0.99707,9922567222,-48.5625,4.875,-1,9922567222,-0.0761719,0.0424805,0.785095,-0.613159,0.161177,0.0675612,-1.80999
9922574701,0,-1,-2,-1,0,-2,2,-1,9922567222,-0.122559,0.203613,0.99707,9922567222,-48.5625,4.875,-1,9922567222,-0.0761719,0.0424805,0.785095,-0.613159,0.161177,0.0675612,-1.80999
9922582211,-1,-2,-1,-3,-4,-1,0,-2,9922567222,-0.122559,0.203613,0.99707,9922567222,-48.5625,4.875,-1,9922567222,-0.0761719,0.0424805,0.785095,-0.613159,0.161177,0.0675612,-1.80999
9922582211,0,-2,-3,3,-2,-4,-1,-4,9922589704,-0.0625,0.144043,1.00732,9922589704,-54.125,7.5,0.125,9922589704,-0.0713501,0.0343018,0.785339,-0.613953,0.142316,0.0700059,-1.80952
9922597767,0,2,1,-1,-1,-2,0,-1,9922589704,-0.0625,0.144043,1.00732,9922589704,-54.125,7.5,0.125,9922589704,-0.0713501,0.0343018,0.785339,-0.613953,0.142316,0.0700059,-1.80952
9922597767,-1,-2,-2,-1,-1,-2,-2,-3,9922589704,-0.0625,0.144043,1.00732,9922589704,-54.125,7.5,0.125,9922589704,-0.0713501,0.0343018,0.785339,-0.613953,0.142316,0.0700059,-1.80952
9922598619,-1,-3,-3,2,2,0,-2,0,9922589704,-0.0625,0.144043,1.00732,9922589704,-54.125,7.5,0.125,9922589704,-0.0713501,0.0343018,0.785339,-0.613953,0.142316,0.0700059,-1.80952
9922598619,0,1,-2,1,0,-2,-5,-3,9922612843,-0.0551758,0.127441,1.01025,9922612843,-59.1875,11.625,-3.4375,9922612843,-0.0664673,0.0250854,0.785889,-0.614258,0.121715,0.0737207,-1.81023
9922613625,2,1,1,1,0,-3,1,0,9922612843,-0.0551758,0.127441,1.01025,9922612843,-59.1875,11.625,-3.4375,9922612843,-0.0664673,0.0250854,0.785889,-0.614258,0.121715,0.0737207,-1.81023
9922613625,-1,0,-3,2,-5,0,1,3,9922612843,-0.0551758,0.127441,1.01025,9922612843,-59.1875,11.625,-3.4375,9922612843,-0.0664673,0.0250854,0.785889,-0.614258,0.121715,0.0737207,-1.81023
9922619648,-4,0,-2,-1,9,-2,-1,-3,9922612843,-0.0551758,0.127441,1.01025,9922612843,-59.1875,11.625,-3.4375,9922612843,-0.0664673,0.0250854,0.785889,-0.614258,0.121715,0.0737207,-1.81023
9922619648,-1,0,0,1,2,1,0,-6,9922627142,-0.0791016,0.0576172,1.02295,9922627142,-59.375,6.1875,-4.1875,9922627142,-0.0606079,0.0158081,0.786499,-0.61438,0.0997917,0.0759849,-1.81147
9922634602,2,0,-1,1,-8,2,-3,-2,9922627142,-0.0791016,0.0576172,1.02295,9922627142,-59.375,6.1875,-4.1875,9922627142,-0.0606079,0.0158081,0.786499,-0.61438,0.0997917,0.0759849,-1.81147
9922634602,-4,-3,-1,-1,-1,2,0,1,9922627142,-0.0791016,0.0576172,1.02295,9922627142,-59.375,6.1875,-4.1875,9922627142,-0.0606079,0.0158081,0.786499,-0.61438,0.0997917,0.0759849,-1.81147
9922642106,-2,-3,-4,-3,-2,-1,-2,-1,9922627142,-0.0791016,0.0576172,1.02295,9922627142,-59.375,6.1875,-4.1875,9922627142,-0.0606079,0.0158081,0.786499,-0.61438,0.0997917,0.0759849,-1.81147
9922642106,1,0,2,-2,2,3,-1,1,9922649713,-0.0942383,0.0825195,1.00439,9922649713,-55.9375,0.25,-5.5625,9922649713,-0.0548706,0.00793457,0.787231,-0.614197,0.0802171,0.0767202,-1.81346
9922658006,-2,-1,1,-3,0,-1,-3,-2,9922649713,-0.0942383,0.0825195,1.00439,9922649713,-55.9375,0.25,-5.5625,9922649713,-0.0548706,0.00793457,0.787231,-0.614197,0.0802171,0.0767202,-1.81346
9922658006,1,1,0,1,-5,2,1,1,9922649713,-0.0942383,0.0825195,1.00439,9922649713,-55.9375,0.25,-5.5625,9922649713,-0.0548706,0.00793457,0.787231,-0.614197,0.0802171,0.0767202,-1.81346
9922658679,-5,1,-1,-2,-2,0,-2,-3,9922649713,-0.0942383,0.0825195,1.00439,9922649713,-55.9375,0.25,-5.5625,9922649713,-0.0548706,0.00793457,0.787231,-0.614197,0.0802171,0.0767202,-1.81346
9922658679,-1,-3,-2,0,-1,0,-1,2,9922673067,-0.132812,0.00292969,1.0332,9922673067,-52.3125,2.875,-9.0625,9922673067,-0.0496826,-0.000610352,0.788208,-0.613342,0.0602075,0.0791518,-1.81659
9922673699,-2,-1,-1,3,-1,-1,-1,-2,9922673067,-0.132812,0.00292969,1.0332,9922673067,-52.3125,2.875,-9.0625,9922673067,-0.0496826,-0.000610352,0.788208,-0.613342,0.0602075,0.0791518,-1.81659
9922673699,-1,0,1,0,-1,0,-3,-5,9922673067,-0.132812,0.00292969,1.0332,9922673067,-52.3125,2.875,-9.0625,9922673067,-0.0496826,-0.000610352,0.788208,-0.613342,0.0602075,0.0791518,-1.81659
9922679812,-1,-3,-1,-5,-3,0,-1,-4,9922673067,-0.132812,0.00292969,1.0332,9922673067,-52.3125,2.875,-9.0625,9922673067,-0.0496826,-0.000610352,0.788208,-0.613342,0.0602075,0.0791518,-1.81659
9922679812,0,1,0,-3,-3,-2,2,2,9922687396,-0.124023,0.0351562,1.00928,9922687396,-59.5625,4.75,-11.6875,9922687396,-0.0443726,-0.00976562,0.789368,-0.612244,0.0390578,0.0821026,-1.82061
9922694843,-1,-2,-1,4,0,-2,-5,-5,9922687396,-0.124023,0.0351562,1.00928,9922687396,-59.5625,4.75,-11.6875,9922687396,-0.0443726,-0.00976562,0.789368,-0.612244,0.0390578,0.0821026,-1.82061
9922694843,2,2,-3,-6,1,-3,-1,0,9922687396,-0.124023,0.0351562,1.00928,9922687396,-59.5625,4.75,-11.6875,9922687396,-0.0443726,-0.00976562,0.789368,-0.612244,0.0390578,0.0821026,-1.82061
9922702157,2,-2,-1,-2,-4,-1,-2,2,9922687396,-0.124023,0.0351562,1.00928,9922687396,-59.5625,4.75,-11.6875,9922687396,-0.0443726,-0.00976562,0.789368,-0.612244,0.0390578,0.0821026,-1.82061
9922702157,-3,0,-2,4,-3,4,0,3,9922710009,-0.0732422,-0.043457,1.02979,9922710009,-65.625,11.5625,-2.8125,9922710009,-0.0383301,-0.0205078,0.789429,-0.612305,0.0146147,0.0857368,-1.82156
9922717988,-2,-3,-3,3,-1,-5,-2,-10,9922710009,-0.0732422,-0.043457,1.02979,9922710009,-65.625,11.5625,-2.8125,9922710009,-0.0383301,-0.0205078,0.789429,-0.612305,0.0146147,0.0857368,-1.82156
9922717988,-3,-7,-3,2,2,1,1,3,9922710009,-0.0732422,-0.043457,1.02979,9922710009,-65.625,11.5625,-2.8125,9922710009,-0.0383301,-0.0205078,0.789429,-0.612305,0.0146147,0.0857368,-1.82156
9922718686,3,8,3,0,2,-3,-1,-2,9922710009,-0.0732422,-0.043457,1.02979,9922710009,-65.625,11.5625,-2.8125,9922710009,-0.0383301,-0.0205078,0.789429,-0.612305,0.0146147,0.0857368,-1.82156
9922718686,-3,-3,0,0,-4,-1,-3,0,9922733065,-0.0117188,-0.109375,1.00977,9922733065,-43.9375,2,8.125,9922733065,-0.0324707,-0.0271606,0.788452,-0.613647,-0.00298931,0.0846383,-1.819
9922733691,-3,0,-5,-3,1,0,-2,-3,9922733065,-0.0117188,-0.109375,1.00977,9922733065,-43.9375,2,8.125,9922733065,-0.0324707,-0.0271606,0.788452,-0.613647,-0.00298931,0.0846383,-1.819
9922733691,-1,0,-1,5,-1,0,0,1,9922733065,-0.0117188,-0.109375,1.00977,9922733065,-43.9375,2,8.125,9922733065,-0.0324707,-0.0271606,0.788452,-0.613647,-0.00298931,0.0846383,-1.819
9922739855,-2,-3,-3,-2,-3,-4,-1,-2,9922733065,-0.0117188,-0.109375,1.00977,9922733065,-43.9375,2,8.125,9922733065,-0.0324707,-0.0271606,0.788452,-0.613647,-0.00298931,0.0846383,-1.819
9922739855,-2,-4,-1,-5,-2,0,-2,-4,9922747305,-0.124023,-0.134277,1.02783,9922747305,1.1875,-7.625,-6.0625,9922747305,-0.0308838,-0.027771,0.789185,-0.612793,-0.00600278,0.0828766,-1.82141
9922754850,1,1,3,-4,-1,-1,2,4,9922747305,-0.124023,-0.134277,1.02783,9922747305,1.1875,-7.625,-6.0625,9922747305,-0.0308838,-0.027771,0.789185,-0.612793,-0.00600278,0.0828766,-1.82141
9922754850,0,-2,2,-1,-2,-2,-2,-7,9922747305,-0.124023,-0.134277,1.02783,9922747305,1.1875,-7.625,-6.0625,9922747305,-0.0308838,-0.027771,0.789185,-0.612793,-0.00600278,0.0828766,-1.82141
9922762367,1,-2,-2,-1,5,2,-1,5,9922747305,-0.124023,-0.134277,1.02783,9922747305,1.1875,-7.625,-6.0625,9922747305,-0.0308838,-0.027771,0.789185,-0.612793,-0.00600278,0.0828766,-1.82141
9922762367,1,-1,0,-5,1,-6,-1,-6,9922769927,-0.0830078,-0.0375977,1.01172,9922769927,15,-7.3125,-30.4375,9922769927,-0.0311279,-0.0253906,0.792542,-0.608521,-0.00236992,0.0803281,-1.83212
9922778085,0,1,3,-1,-2,0,-1,-1,9922769927,-0.0830078,-0.0375977,1.01172,9922769927,15,-7.3125,-30.4375,9922769927,-0.0311279,-0.0253906,0.792542,-0.608521,-0.00236992,0.0803281,-1.83212
9922778085,-2,-1,0,0,0,0,0,2,9922769927,-0.0830078,-0.0375977,1.01172,9922769927,15,-7.3125,-30.4375,9922769927,-0.0311279,-0.0253906,0.792542,-0.608521,-0.00236992,0.0803281,-1.83212
9922778732,-1,-4,-3,2,-8,-1,2,-8,9922769927,-0.0830078,-0.0375977,1.01172,9922769927,15,-7.3125,-30.4375,9922769927,-0.0311279,-0.0253906,0.792542,-0.608521,-0.00236992,0.0803281,-1.83212
9922778732,0,-1,-2,2,-2,2,-1,2,9922793637,-0.135254,0.112793,1.02051,9922793637,13.6875,-8.25,-14.5,9922793637,-0.0327148,-0.0220947,0.794128,-0.606506,0.00460574,0.0788424,-1.83699
9922795393,-1,-1,-4,-4,2,-1,-2,-1,9922793637,-0.135254,0.112793,1.02051,9922793637,13.6875,-8.25,-14.5,9922793637,-0.0327148,-0.0220947,0.794128,-0.606506,0.00460574,0.0788424,-1.83699
9922795393,-2,2,1,-3,1,0,-2,0,9922793637,-0.135254,0.112793,1.02051,9922793637,13.6875,-8.25,-14.5,9922793637,-0.0327148,-0.0220947,0.794128,-0.606506,0.00460574,0.0788424,-1.83699
9922799860,-2,1,3,0,0,-1,1,0,9922793637,-0.135254,0.112793,1.02051,9922793637,13.6875,-8.25,-14.5,9922793637,-0.0327148,-0.0220947,0.794128,-0.606506,0.00460574,0.0788424,-1.83699
9922799860,-1,1,0,-2,-2,-2,-2,-3,9922807423,-0.0830078,0.0839844,0.999512,9922807423,0.3125,-8.1875,0.9375,9922807423,-0.0322876,-0.0204468,0.794006,-0.606689,0.0067269,0.0761564,-1.8364
9922814678,-4,0,-1,-3,-2,-4,1,0,9922807423,-0.0830078,0.0839844,0.999512,9922807423,0.3125,-8.1875,0.9375,9922807423,-0.0322876,-0.0204468,0.794006,-0.606689,0.0067269,0.0761564,-1.8364
9922814678,2,0,-1,0,-3,-2,0,-1,9922807423,-0.0830078,0.0839844,0.999512,9922807423,0.3125,-8.1875,0.9375,9922807423,-0.0322876,-0.0204468,0.794006,-0.606689,0.0067269,0.0761564,-1.8364
